AccX_0,AccY_0,AccZ_0,GyroX_0,GyroY_0,GyroZ_0,AccX_1,AccY_1,AccZ_1,GyroX_1,GyroY_1,GyroZ_1,AccX_2,AccY_2,AccZ_2,GyroX_2,GyroY_2,GyroZ_2,AccX_3,AccY_3,AccZ_3,GyroX_3,GyroY_3,GyroZ_3,AccX_4,AccY_4,AccZ_4,GyroX_4,GyroY_4,GyroZ_4,AccX_5,AccY_5,AccZ_5,GyroX_5,GyroY_5,GyroZ_5,AccX_6,AccY_6,AccZ_6,GyroX_6,GyroY_6,GyroZ_6,AccX_7,AccY_7,AccZ_7,GyroX_7,GyroY_7,GyroZ_7,AccX_8,AccY_8,AccZ_8,GyroX_8,GyroY_8,GyroZ_8,AccX_9,AccY_9,AccZ_9,GyroX_9,GyroY_9,GyroZ_9,AccX_10,AccY_10,AccZ_10,GyroX_10,GyroY_10,GyroZ_10,AccX_11,AccY_11,AccZ_11,GyroX_11,GyroY_11,GyroZ_11,AccX_12,AccY_12,AccZ_12,GyroX_12,GyroY_12,GyroZ_12,AccX_13,AccY_13,AccZ_13,GyroX_13,GyroY_13,GyroZ_13,AccX_14,AccY_14,AccZ_14,GyroX_14,GyroY_14,GyroZ_14,AccX_15,AccY_15,AccZ_15,GyroX_15,GyroY_15,GyroZ_15,AccX_16,AccY_16,AccZ_16,GyroX_16,GyroY_16,GyroZ_16,AccX_17,AccY_17,AccZ_17,GyroX_17,GyroY_17,GyroZ_17,AccX_18,AccY_18,AccZ_18,GyroX_18,GyroY_18,GyroZ_18,AccX_19,AccY_19,AccZ_19,GyroX_19,GyroY_19,GyroZ_19,AccX_20,AccY_20,AccZ_20,GyroX_20,GyroY_20,GyroZ_20,AccX_21,AccY_21,AccZ_21,GyroX_21,GyroY_21,GyroZ_21,AccX_22,AccY_22,AccZ_22,GyroX_22,GyroY_22,GyroZ_22,AccX_23,AccY_23,AccZ_23,GyroX_23,GyroY_23,GyroZ_23,AccX_24,AccY_24,AccZ_24,GyroX_24,GyroY_24,GyroZ_24,AccX_25,AccY_25,AccZ_25,GyroX_25,GyroY_25,GyroZ_25,AccX_26,AccY_26,AccZ_26,GyroX_26,GyroY_26,GyroZ_26,AccX_27,AccY_27,AccZ_27,GyroX_27,GyroY_27,GyroZ_27,AccX_28,AccY_28,AccZ_28,GyroX_28,GyroY_28,GyroZ_28,AccX_29,AccY_29,AccZ_29,GyroX_29,GyroY_29,GyroZ_29,Label 
68,90,-382,-37,-1328,-356,13,57,-357,362,-2527,-619,-12,73,-267,1107,-3296,-730,-94,-17,-151,892,-3312,-752,-144,-28,-62,1029,-2793,-695,-179,-58,-57,754,-2214,-524,-197,-84,9,345,-1515,-392,-218,-77,36,175,-585,-125,-226,-89,58,-669,770,192,-204,-83,48,-934,1976,415,-171,-68,-39,-1234,2904,643,-124,-49,-134,-1219,3336,905,-42,39,-235,-469,3022,944,-23,50,-294,323,2098,544,-34,43,-301,-34,1482,192,-7,12,-306,72,1017,219,-1,31,-310,-123,512,72,-4,12,-328,93,-48,52,-12,23,-272,-105,-19,26,-3,6,-259,32,48,-27,0,16,-267,-35,11,-8,2,19,-261,-18,3,4,1,12,-260,0,16,-6,0,11,-260,-63,16,16,0,16,-263,-12,27,6,0,13,-264,-2,17,17,1,14,-259,-41,11,12,2,14,-262,-4,25,16,0,12,-263,-1,25,9,-1,9,-269,-56,27,10,UP
-6,7,-320,323,-82,49,62,25,-422,-370,-1218,-202,12,23,-364,371,-2779,-251,-34,33,-251,465,-3595,-327,-84,10,-144,1018,-3595,-381,-119,-1,-73,1230,-3267,-310,-154,-28,1,712,-2660,-200,-211,-56,38,374,-1642,-322,-219,-85,86,-32,-501,-210,-235,-83,75,-494,661,101,-223,-94,58,-788,1467,441,-217,-66,-4,-775,2142,473,-194,-69,-59,-1145,2678,539,-154,-55,-107,-1488,3054,457,-104,20,-203,-405,2873,563,-66,42,-258,153,2382,379,-42,51,-294,214,1681,132,-19,31,-295,-158,1140,-6,-3,24,-310,77,690,-3,-1,18,-293,-136,333,-49,-10,-34,-297,-51,-68,42,-14,20,-266,-91,-4,76,-9,15,-263,-24,59,-18,-8,13,-267,-2,27,5,-8,12,-260,-41,14,13,-4,13,-259,-11,15,0,-6,9,-258,-53,9,0,-6,13,-263,18,26,-8,-8,12,-262,-17,28,17,-14,4,-296,-121,6,-14,UP
78,56,-401,-106,-921,-398,20,24,-409,498,-2800,-271,-33,39,-284,858,-3872,-356,-97,-4,-109,1253,-3987,-292,-133,-21,-40,1001,-3149,-456,-176,-65,40,795,-2053,-496,-200,-49,9,633,-1140,-458,-207,-101,70,-91,-369,-264,-226,-98,51,-337,368,114,-217,-84,44,-614,1130,275,-219,-80,-5,-954,1895,371,-200,-84,-60,-1407,2523,428,-147,-47,-93,-1335,2913,491,-113,0,-177,-929,2854,616,-57,64,-267,-500,2562,508,-27,40,-267,-600,2008,347,-7,34,-306,94,1388,361,16,47,-318,-208,701,244,58,42,-321,502,101,69,-10,26,-272,-223,-138,80,-6,24,-259,146,-2,48,-1,5,-270,186,46,1,1,7,-270,-46,25,1,1,15,-261,17,22,0,-3,9,-258,-73,33,10,-2,16,-263,-1,23,11,-1,16,-263,26,14,30,2,12,-253,-49,-3,11,-3,13,-278,0,40,9,-4,5,-346,-546,-164,-134,UP
104,107,-409,620,-1587,-397,57,14,-403,950,-3570,-198,-48,4,-199,967,-4638,94,-122,6,-33,1223,-4171,74,-166,1,40,1027,-3064,-162,-203,-36,59,679,-1650,-665,-225,-110,80,-146,-598,-421,-224,-63,74,-361,384,37,-204,-68,73,-794,1324,296,-193,-56,0,-851,2231,341,-187,-57,-38,-1517,2859,396,-141,-16,-159,-853,3300,471,-94,-18,-199,-965,3265,442,-33,23,-289,-72,2688,373,-19,55,-322,56,1832,231,10,13,-317,-235,895,136,5,20,-303,36,304,36,-10,-27,-300,207,-72,74,-12,0,-265,93,9,10,-5,-7,-263,231,42,-46,-7,-10,-260,-76,29,-11,-8,-3,-261,38,25,-7,-8,-8,-260,20,14,8,-4,-2,-262,59,20,-3,-4,-11,-260,77,36,-1,-1,-13,-263,-9,32,1,-3,-8,-261,-138,23,32,-3,-5,-270,-91,20,17,-3,-10,-264,-220,21,14,-3,0,-268,-185,27,36,UP
-1,-33,-321,-788,-158,-33,67,33,-427,274,-1776,24,1,48,-380,342,-3310,-212,-45,38,-198,1107,-4136,-280,-100,-5,-76,1219,-4042,-500,-148,-11,14,1526,-3384,-521,-205,-42,84,770,-1962,-549,-206,-90,139,-353,-271,-581,-193,-80,61,-631,1114,-43,-191,-86,44,-1561,2043,446,-208,-72,-7,-1542,2668,606,-168,-37,-112,-1454,3071,605,-95,3,-211,-811,2998,566,-66,38,-285,-491,2594,562,-19,38,-310,-52,1907,424,-1,33,-329,-239,1186,288,-3,46,-304,-78,717,150,3,7,-282,-162,347,60,18,32,-284,-15,22,52,-8,29,-264,-180,-46,43,-3,32,-263,199,32,-1,1,16,-262,78,20,3,-3,15,-261,157,35,4,-6,4,-267,-5,16,23,-3,9,-262,-65,13,33,-1,11,-258,-5,22,32,0,13,-260,-13,35,26,1,10,-263,4,22,21,1,11,-259,18,24,12,1,4,-261,-32,29,4,UP
0,10,-261,-69,26,28,-9,7,-283,-185,57,-27,30,17,-385,-406,-265,-149,60,38,-407,1076,-1898,-279,9,-16,-347,861,-3336,0,-73,-16,-177,157,-4093,-78,-102,43,-90,1370,-3841,-217,-146,-26,3,856,-2929,-215,-176,-2,19,732,-1909,-518,-203,-104,51,-134,-958,-556,-232,-120,106,-69,0,-110,-229,-84,73,-582,968,349,-220,-87,83,-1486,1950,409,-182,-45,-21,-1023,2654,592,-157,-50,-122,-1322,3229,617,-98,-21,-202,-849,3146,799,-64,15,-280,-1381,2633,801,-37,115,-279,454,1866,661,-2,74,-303,-50,1598,180,13,51,-312,326,968,74,25,33,-300,-24,468,35,6,4,-307,80,-76,1,0,25,-259,-20,32,17,9,24,-263,130,64,-21,3,16,-269,4,3,10,7,22,-258,-22,13,12,14,21,-262,-20,78,-20,13,17,-262,25,28,-8,11,13,-261,-37,26,17,13,20,-261,-36,19,9,UP
11,20,-261,-26,16,9,11,21,-266,9,27,9,7,13,-268,-117,34,-12,13,28,-319,-305,-104,-17,80,42,-387,427,-1109,-64,35,26,-386,214,-2537,-73,2,59,-292,950,-3582,-185,-51,42,-169,1175,-4090,-218,-123,-1,-46,1192,-3836,-164,-172,-46,48,1517,-3008,-124,-219,-30,60,805,-1795,-364,-235,-91,125,16,-448,-393,-232,-67,98,-454,658,-123,-216,-87,73,-980,1260,232,-213,-56,-17,-1025,1922,187,-207,-78,-34,-1761,2544,161,-186,-45,-81,-1381,2791,333,-128,2,-176,-1096,2753,395,-86,68,-244,-302,2563,352,-48,39,-277,214,2248,108,-9,35,-288,-144,1865,-5,31,13,-315,176,1109,24,15,-2,-297,-469,548,166,30,26,-286,-22,376,47,51,16,-275,34,234,-70,21,-12,-278,-25,-30,0,21,1,-266,60,15,36,25,4,-265,-26,21,5,27,8,-264,18,5,-3,24,2,-257,-8,26,14,UP
28,5,-260,4,6,27,25,2,-260,-24,16,13,27,1,-262,-42,10,30,25,3,-260,-26,20,23,23,1,-269,-11,18,-4,29,2,-287,-206,-41,-20,61,-20,-315,-494,-558,-116,42,3,-365,118,-1584,26,34,33,-365,911,-2489,129,4,8,-290,1301,-3477,390,-70,12,-161,748,-3857,369,-121,26,-70,1329,-3537,242,-172,-16,1,2185,-3031,446,-217,2,96,1046,-1921,7,-257,-19,109,503,-636,-505,-222,-4,109,-136,326,-485,-204,-65,91,-795,883,-235,-212,-58,101,-1377,1379,-136,-213,-49,21,-1467,1979,-79,-188,-42,-53,-1631,2593,-87,-136,-48,-128,-1472,3013,7,-96,-12,-186,-783,3049,5,-33,-5,-270,-844,2715,-75,4,18,-310,-408,2068,-64,18,-9,-301,-240,1374,5,33,-2,-305,-190,727,117,25,9,-297,-210,381,115,32,16,-274,-209,325,43,34,25,-276,-43,305,0,24,-13,-285,-189,-67,23,UP
28,16,-262,-46,0,45,26,7,-266,-19,13,13,28,10,-263,30,1,24,27,0,-261,-20,39,68,33,15,-264,-59,5,29,29,7,-264,-46,27,13,30,6,-269,-199,26,12,42,1,-313,-611,-60,-80,73,29,-405,320,-1171,78,55,31,-362,226,-2406,55,8,37,-301,842,-3046,2,-40,10,-195,1034,-3268,153,-87,16,-143,1048,-3096,115,-142,10,-103,1584,-2907,221,-190,-36,0,937,-2625,280,-226,-22,65,1022,-1907,14,-237,-34,70,433,-966,-392,-258,-76,135,509,-12,-370,-233,-68,86,-267,393,-130,-247,-67,63,-899,745,7,-253,-60,106,-1611,1416,-126,-203,-39,32,-1275,2039,-108,-166,-38,-33,-1520,2696,-12,-147,-59,-129,-1585,3396,57,-77,-28,-155,-1140,3451,106,1,55,-252,-603,2928,234,38,36,-335,-315,2229,13,52,-1,-325,-100,1066,45,44,23,-322,-141,523,72,31,15,-295,-221,307,3,UP
50,38,-311,574,-3,18,27,4,-258,-197,-33,36,29,15,-268,-37,-3,32,31,16,-260,-8,3,6,33,7,-259,-27,-8,16,28,10,-264,-90,-14,28,30,3,-279,-192,-54,5,49,24,-314,-214,-412,76,50,36,-362,14,-1211,12,24,34,-342,184,-1994,-133,-2,17,-286,850,-2722,-59,-61,2,-223,958,-3179,96,-83,49,-164,1589,-3314,137,-157,-20,-72,1291,-3035,87,-193,-15,-16,1326,-2496,-55,-217,-71,48,934,-1759,-119,-237,-64,95,356,-803,-192,-245,-52,95,-58,238,-319,-229,-80,53,-399,666,-51,-235,-89,45,-503,863,118,-241,-60,34,-1083,1549,-116,-210,-83,12,-1387,2053,-65,-172,-50,-89,-1947,2626,-50,-147,-46,-120,-1408,3079,75,-81,-4,-207,-1114,3258,217,-17,21,-225,-1155,2969,335,31,51,-322,74,2119,323,57,36,-345,-138,1104,177,49,28,-311,-36,396,131,37,27,-330,418,-70,88,UP
29,23,-205,-264,1910,-11,94,29,-163,-551,2691,24,178,59,-149,-1091,3439,239,243,84,-143,-127,3368,608,292,59,-137,-315,3002,492,334,120,-156,-114,2301,315,346,80,-143,-228,1480,-120,333,57,-141,-184,532,-193,313,47,-152,-238,-305,-171,308,60,-146,-69,-989,-62,301,79,-150,-6,-1646,-100,322,82,-148,165,-2540,-84,302,106,-179,-105,-3348,-257,255,82,-189,429,-3748,-286,175,64,-191,292,-3558,-377,75,64,-181,429,-3055,-320,1,49,-184,412,-2102,-380,-52,43,-198,175,-1061,-357,-65,17,-190,37,-432,-218,-73,38,-225,88,-38,-95,-82,12,-231,-27,31,-65,-80,41,-250,199,7,-9,-82,24,-244,-57,54,-54,-78,23,-235,9,77,-26,-77,31,-241,-44,109,-38,-71,25,-245,12,91,-25,-74,26,-249,-6,106,-13,-76,18,-235,-105,195,-14,-74,28,-195,-254,634,-71,-41,38,-195,-411,1673,-152,DOWN
3,-3,-150,-540,2436,-43,101,74,-184,-1333,3324,230,192,85,-120,-1374,3884,448,282,152,-158,-623,4082,755,359,138,-161,-263,3226,510,356,103,-141,-210,2081,220,325,100,-141,-455,885,162,314,89,-131,-374,-286,88,267,93,-128,-127,-677,-32,283,99,-130,236,-927,-101,319,81,-88,87,-1734,-123,313,111,-142,210,-2629,-220,275,116,-192,138,-3249,-411,237,113,-188,361,-3354,-496,144,102,-221,663,-2928,-587,82,61,-187,902,-2700,-272,6,41,-187,554,-1975,-231,-35,56,-210,492,-1255,-280,-56,37,-220,295,-683,-186,-75,14,-226,66,-341,-102,-83,21,-239,123,-152,-38,-93,5,-226,-128,-32,16,-92,23,-232,-41,153,6,-78,30,-244,74,150,28,-79,30,-254,46,83,-29,-79,9,-239,-17,83,-21,-74,21,-230,-31,223,-16,-71,16,-202,-141,702,-15,-47,9,-167,-353,1887,-123,28,22,-179,-404,2882,-58,DOWN
120,60,-191,-815,3476,42,198,35,-124,-1031,3891,202,298,139,-142,-333,3785,380,322,66,-159,-271,2919,244,349,102,-155,-506,1812,158,348,62,-155,-355,695,134,334,34,-130,-974,-593,86,286,62,-115,-484,-999,29,278,55,-128,-195,-1318,32,272,97,-181,189,-1558,-110,299,96,-168,436,-2304,-204,269,92,-193,183,-2897,-331,219,98,-198,744,-3144,-417,134,46,-192,734,-3127,-242,76,52,-185,739,-2810,-88,-16,37,-187,209,-1877,-210,-55,15,-186,274,-922,-260,-60,9,-210,78,-249,-183,-64,9,-244,108,-47,-78,-65,5,-250,23,-93,-13,-69,5,-247,-43,-84,-32,-74,5,-243,6,46,-46,-67,16,-244,-21,234,-49,-64,0,-234,-106,313,-72,-60,7,-229,-147,551,-66,-48,9,-186,-454,1186,-78,-5,9,-192,-434,1953,-42,60,22,-213,-527,2574,-71,131,37,-190,-436,2928,111,199,56,-147,-715,3271,141,DOWN
251,67,-145,-545,3547,214,323,75,-142,93,3100,86,342,83,-97,-185,2431,-76,343,72,-128,-367,1585,-35,334,61,-103,-274,365,-25,302,51,-94,-315,-572,17,305,66,-128,-46,-1261,67,319,94,-154,254,-1884,7,328,86,-142,307,-2801,7,318,95,-194,363,-3543,-92,267,69,-183,450,-3826,-145,159,51,-199,426,-3413,-207,73,7,-192,598,-2648,-181,11,16,-193,557,-1822,-203,-24,15,-211,346,-1106,-224,-52,8,-213,321,-671,-191,-69,-10,-207,-221,-234,-109,-70,11,-227,84,67,-43,-66,-7,-238,6,155,0,-65,-6,-249,-162,145,49,-65,6,-250,77,71,52,-67,2,-249,-120,87,26,-64,2,-255,46,75,4,-65,4,-255,-53,56,-6,-64,-1,-244,-144,76,-23,-57,5,-237,-61,128,-17,-61,11,-240,-174,337,-51,-52,-7,-224,-138,426,35,-40,16,-211,-425,999,-57,-2,11,-172,-833,1988,-165,DOWN
65,22,-161,-544,2798,-80,150,46,-170,-640,3521,93,259,83,-152,-610,3955,186,321,97,-137,-166,3695,212,357,61,-140,-256,2826,78,361,68,-141,248,1575,25,342,32,-151,-435,374,80,318,45,-132,-252,-467,36,310,53,-118,-270,-1090,118,329,36,-116,-300,-2011,184,332,70,-175,21,-2832,82,316,90,-191,188,-3496,-28,239,78,-203,319,-3585,-110,159,18,-208,319,-3499,-117,55,36,-163,595,-3080,-22,-1,14,-174,484,-1945,-83,-50,41,-202,569,-1065,-115,-66,-25,-191,224,-529,-94,-72,18,-227,-118,-167,-75,-81,-15,-229,-20,-33,-17,-82,5,-248,44,38,-32,-81,-5,-245,-79,72,-34,-81,-7,-242,-7,37,-30,-80,1,-241,11,27,-15,-78,-14,-245,-29,-2,1,-79,3,-242,94,-11,15,-82,-2,-237,-99,81,-39,-80,-13,-239,-37,85,11,-79,-2,-234,-100,129,26,-76,-1,-221,-137,316,40,DOWN
-70,-7,-201,-254,975,-90,-38,16,-176,-313,1803,-133,55,18,-196,-716,2922,-282,117,22,-135,-687,3456,-127,213,70,-149,-848,3945,-140,307,129,-148,-378,4023,-17,354,102,-159,978,3147,-338,354,48,-157,140,1928,-292,344,21,-134,-597,775,-156,332,30,-138,-575,-278,26,320,26,-160,-336,-1124,202,308,74,-156,69,-1605,124,308,60,-134,106,-2268,291,317,78,-186,355,-2865,263,255,57,-209,232,-3333,258,203,67,-187,361,-3251,107,119,36,-186,262,-2788,-11,52,20,-180,422,-2356,73,-22,29,-175,49,-1651,-87,-49,13,-213,-6,-1031,-139,-69,-8,-216,-112,-619,-121,-79,-6,-228,-118,-268,-53,-83,11,-244,-86,-67,-95,-81,8,-238,-78,-7,-75,-79,9,-250,-23,5,-51,-86,15,-249,-45,48,-35,-86,4,-241,-33,70,-32,-83,7,-241,-21,73,-1,-80,11,-243,-23,104,3,-79,4,-233,-94,200,16,DOWN
-74,-2,-234,-242,493,74,-64,3,-196,-72,895,224,-40,-5,-178,-387,1727,365,40,28,-209,-351,2636,415,108,27,-137,-397,3419,362,210,107,-143,-466,3905,338,320,126,-111,-211,4028,91,398,109,-166,674,3352,-89,367,29,-126,446,2150,-319,343,31,-128,-299,1329,-241,344,9,-123,-450,6,28,329,13,-178,-518,-1205,158,319,67,-143,-146,-1976,110,342,67,-118,91,-2959,295,322,61,-176,108,-3458,102,259,69,-180,93,-3647,-12,193,57,-172,379,-3414,-78,104,23,-196,184,-2934,-91,16,29,-181,91,-2231,-84,-39,-2,-185,-201,-1125,-210,-59,10,-218,446,-678,-169,-72,12,-238,-34,-500,-121,-78,1,-231,22,-306,-152,-84,8,-234,4,-66,-145,-78,8,-238,-11,13,-127,-76,6,-244,-17,45,-49,-82,7,-241,-26,112,-12,-85,3,-241,-31,133,53,-78,10,-247,-6,117,75,-82,4,-242,-91,103,54,DOWN
-74,11,-240,-56,257,65,-70,4,-215,-206,497,46,-54,14,-198,-361,1182,34,-21,4,-152,-391,2281,-22,72,37,-196,-342,3107,32,178,83,-161,-675,3661,36,253,72,-150,-831,4008,86,321,120,-123,-583,3793,281,371,98,-123,688,2726,85,355,31,-99,-340,1497,-31,329,55,-136,-217,722,-5,321,25,-120,-391,-224,127,319,41,-160,-350,-1106,216,337,80,-128,-415,-2198,117,335,65,-143,-38,-2962,46,327,94,-201,-227,-3699,-297,234,116,-173,-48,-3667,-762,145,35,-163,840,-3106,-778,84,34,-187,742,-2489,-547,17,36,-188,449,-1766,-392,-22,25,-210,375,-1052,-241,-47,19,-212,219,-551,-148,-65,3,-224,-7,-81,-104,-65,11,-239,-56,85,-55,-63,9,-251,12,56,-27,-65,10,-252,-12,-29,-40,-67,1,-243,-38,-60,-43,-67,12,-254,8,-11,-24,-65,6,-247,-43,-13,-19,-67,6,-245,-20,12,-12,DOWN
-65,4,-245,-54,45,3,-63,11,-248,-13,92,11,-67,8,-243,-122,191,22,-63,-2,-234,-172,227,121,-65,-1,-177,-527,834,170,-24,4,-170,-736,1943,165,55,50,-186,-1313,2822,344,117,46,-125,-1461,3414,516,245,140,-157,-810,3699,830,314,158,-129,-350,3606,774,325,68,-113,-379,2743,508,368,132,-130,-61,1860,252,337,102,-99,-94,1084,93,321,57,-105,-206,34,46,322,70,-141,-239,-931,33,304,84,-115,-12,-1560,22,324,73,-116,282,-2413,-9,322,107,-164,474,-2970,-127,275,71,-169,29,-3203,-232,222,107,-179,422,-3171,-360,129,58,-170,639,-2772,-379,71,50,-195,646,-2239,-305,25,43,-195,370,-1659,-386,-21,24,-203,357,-894,-398,-41,6,-230,17,-515,-279,-59,18,-246,212,-414,-213,-70,-10,-229,82,-403,-72,-76,13,-235,79,-198,-40,-76,5,-232,-117,13,-97,-71,5,-243,-71,62,-68,DOWN
0,50,-259,-22,12,-4,1,51,-259,-40,5,1,0,46,-263,-15,6,1,14,19,-277,78,-29,152,37,-27,-305,276,-289,684,41,-50,-294,345,-587,1453,23,-28,-251,76,-550,2218,31,23,-218,-122,-231,2575,28,86,-219,-322,201,2592,49,141,-233,-97,468,2197,58,183,-253,-170,340,1490,52,193,-252,-314,-10,464,13,195,-251,-146,-3,-518,32,186,-247,170,-9,-1392,27,137,-259,311,-70,-2052,59,117,-240,275,-83,-2505,29,45,-237,107,-73,-2618,31,-1,-253,45,-17,-2362,11,-23,-266,-162,35,-1844,2,-21,-272,-185,100,-1239,-1,-2,-270,-189,70,-721,-15,10,-257,-123,94,-452,-18,21,-266,-36,99,-225,-22,21,-256,-40,41,-57,-18,31,-254,-3,14,30,-25,37,-259,-17,20,20,-22,36,-257,-49,28,-16,-23,32,-257,-26,1,16,-21,32,-256,-53,26,-2,-24,33,-256,-36,32,7,RIGHT
-21,38,-256,-27,35,-1,-22,31,-260,-41,16,9,-20,35,-255,-31,-2,4,-24,35,-255,-5,21,17,-21,25,-257,-26,26,53,-12,13,-260,20,13,257,-1,-9,-263,57,-71,638,2,-2,-265,197,-48,1158,12,-27,-255,117,-45,1647,16,-1,-251,201,-22,2073,22,18,-243,-89,58,2258,23,30,-245,-332,229,2379,39,65,-242,-53,282,2175,29,81,-255,-580,347,1992,63,105,-251,-507,228,1633,55,139,-266,-297,140,1214,56,138,-267,-471,78,585,53,165,-263,-143,-17,-52,49,140,-261,0,-30,-703,52,152,-258,397,-103,-1170,57,106,-235,44,-194,-1572,43,108,-251,279,-2,-1891,43,64,-258,482,74,-2059,29,34,-230,-705,66,-2087,32,5,-211,128,62,-1916,42,-21,-267,535,-618,-1249,-47,11,-243,-452,-343,-1186,-39,28,-213,-240,219,-1202,-36,29,-252,-611,349,-1045,-18,42,-268,-139,274,-759,RIGHT
-25,17,-272,-109,169,-438,-19,31,-257,-64,81,-94,-18,49,-260,53,105,75,-19,53,-256,-19,87,90,-23,58,-260,21,77,98,-20,56,-258,56,42,84,-14,30,-261,59,51,257,1,5,-262,208,-13,634,0,-1,-268,128,-63,1127,11,-2,-255,326,-78,1632,23,21,-263,464,-89,2011,24,20,-248,-185,-77,2228,38,45,-240,-297,32,2326,49,112,-269,-118,83,2259,54,80,-257,-706,181,2035,49,71,-230,-231,148,1819,61,164,-257,-84,260,1449,66,119,-252,-532,268,865,69,175,-254,-82,99,350,65,154,-260,28,63,-278,65,154,-266,322,-47,-830,68,152,-242,3,-169,-1367,67,125,-243,455,-136,-1819,58,96,-271,481,-122,-2029,50,61,-267,281,-294,-2002,29,38,-236,-283,-342,-1830,0,55,-254,40,-37,-1770,4,53,-244,31,236,-1771,3,31,-227,-125,391,-1704,10,25,-256,-138,415,-1397,RIGHT
9,17,-268,-189,264,-987,8,9,-271,-209,122,-585,4,20,-279,-38,-17,-240,-1,43,-267,-76,-88,-1,-3,42,-254,-30,-26,29,-5,54,-260,26,22,9,-10,51,-263,15,3,70,-8,31,-260,-11,-31,198,0,21,-265,99,-91,429,6,20,-270,169,-133,759,1,-3,-261,154,-136,1138,9,1,-262,310,-183,1487,9,15,-258,97,-150,1865,14,1,-226,-23,8,2067,29,72,-256,-68,168,2107,29,65,-241,-557,256,2019,64,125,-256,-508,268,2010,52,105,-243,-585,124,1758,63,142,-259,-94,123,1522,68,128,-253,-435,129,986,76,156,-252,-327,-19,496,58,162,-254,14,40,-92,65,139,-250,279,29,-583,62,131,-251,199,-53,-1035,61,138,-261,344,54,-1491,64,108,-248,459,-26,-1741,77,106,-256,-155,-155,-2015,37,83,-247,532,-206,-2177,18,62,-242,428,58,-2223,16,14,-250,11,163,-2133,RIGHT
15,15,-259,40,158,-1819,16,19,-237,-285,284,-1540,11,1,-253,-384,225,-1082,13,19,-267,-208,69,-605,8,24,-275,-180,-1,-256,2,41,-267,-7,-60,-77,-3,55,-261,2,-2,-48,-7,45,-256,-40,1,-11,-5,40,-259,28,-5,160,4,19,-265,65,-57,404,10,7,-269,117,-149,819,14,5,-278,253,-268,1335,8,-2,-245,235,-340,1791,20,5,-242,97,-178,2035,16,63,-261,50,-49,2145,18,50,-243,224,49,2115,22,68,-247,-146,121,2029,31,86,-259,17,131,1883,37,74,-240,-386,261,1617,57,89,-246,-586,327,1335,63,130,-266,-83,285,1053,58,115,-261,-203,118,604,58,131,-258,-92,92,116,63,133,-257,221,132,-412,76,126,-249,142,-84,-831,68,125,-244,99,-1,-1497,79,134,-252,267,121,-2003,80,84,-274,549,-116,-2110,51,64,-259,433,-165,-2253,39,44,-261,182,15,-2339,RIGHT
30,23,-226,-99,-51,-2159,30,0,-244,-236,5,-1846,21,15,-267,-230,71,-1432,11,2,-271,-160,100,-1030,13,6,-256,-237,-17,-516,6,22,-265,118,-75,-186,0,36,-260,-235,-14,-21,2,32,-258,57,19,155,1,16,-272,-67,-13,395,14,-4,-269,36,-129,863,10,1,-260,323,-225,1378,17,-8,-275,175,-192,1828,33,22,-255,238,-176,2182,39,43,-256,-25,-75,2402,40,62,-253,-75,24,2411,45,48,-252,-4,142,2281,51,87,-254,-347,123,1873,51,94,-243,-169,115,1441,47,154,-255,-142,40,931,42,110,-250,-587,-40,342,28,135,-248,43,-55,-79,33,137,-253,14,64,-557,49,123,-246,149,27,-1115,47,123,-254,458,108,-1707,64,103,-263,276,136,-2186,63,83,-255,221,80,-2460,51,21,-255,-266,85,-2619,52,-13,-267,258,82,-2299,27,21,-256,-244,158,-2019,21,-29,-252,-415,75,-1370,RIGHT
24,-21,-284,-73,5,-767,9,23,-263,-134,-64,-349,8,38,-260,-59,6,-187,0,44,-262,-76,25,-95,-1,37,-251,-78,45,-12,0,53,-258,9,35,52,0,54,-269,-36,-25,63,0,23,-266,-125,-78,220,17,-6,-284,-59,-189,693,26,-6,-269,206,-355,1380,24,0,-265,541,-327,2074,31,-4,-250,814,-173,2550,45,72,-270,283,45,2632,36,-14,-226,-526,202,2501,46,92,-253,300,161,2395,58,145,-259,655,294,1934,54,36,-246,-912,482,1524,57,103,-256,-100,318,1057,66,140,-273,-245,188,477,62,123,-271,-54,79,-347,72,130,-261,248,-108,-970,70,107,-266,295,-5,-1846,71,104,-273,512,-51,-2342,58,72,-263,1,-87,-2626,81,29,-215,-90,-345,-2662,41,-10,-241,54,-413,-2302,22,-21,-254,-189,-255,-2065,9,-1,-270,-446,30,-1717,11,2,-259,-298,143,-1265,5,9,-255,-368,107,-747,RIGHT
1,9,-265,-162,51,-317,0,44,-268,-47,93,-109,-2,38,-262,-60,78,-48,-11,52,-258,-16,20,20,-17,42,-255,-73,34,31,-10,54,-256,20,33,6,-14,52,-255,-95,35,-1,-9,45,-259,8,-51,48,-10,58,-258,-16,-54,75,-3,27,-262,-32,-34,224,7,4,-280,41,-117,634,14,4,-277,197,-288,1175,8,-29,-257,194,-282,1723,22,-2,-255,442,-266,2158,17,26,-258,110,-163,2473,35,12,-220,45,19,2525,40,169,-263,862,70,2587,59,72,-229,-1020,335,2342,63,126,-256,47,420,1780,58,116,-257,-291,318,1278,52,137,-275,-292,225,691,61,140,-268,-125,25,144,69,133,-257,114,17,-701,63,165,-258,134,-110,-1333,64,107,-256,419,-87,-1965,72,76,-266,0,-224,-2241,50,88,-292,351,-309,-2401,53,99,-238,553,-254,-2481,3,-9,-245,-585,-261,-2277,0,17,-249,-85,59,-2202,RIGHT
2,31,-256,-354,353,-1938,4,-4,-249,-425,328,-1443,2,-5,-258,-321,234,-790,10,17,-278,-82,107,-306,-4,50,-270,-102,33,-59,-13,48,-255,-44,98,-85,-18,47,-256,-55,78,-25,-18,49,-257,-52,26,23,-17,51,-257,-92,0,3,-12,34,-254,-31,11,55,1,30,-269,26,-50,383,11,-15,-272,30,-158,941,22,7,-276,387,-275,1494,10,13,-267,504,-214,2030,62,65,-268,126,-404,2010,-25,5,-226,606,-270,2207,10,6,-207,14,91,2381,10,58,-256,82,241,2359,42,64,-247,-452,267,2197,48,107,-239,-345,193,1839,54,140,-246,-237,196,1252,50,143,-253,-553,38,707,35,151,-249,-52,68,1,45,117,-252,46,-19,-445,45,157,-259,251,30,-1068,56,140,-247,41,70,-1624,52,125,-277,219,190,-2145,42,103,-223,71,-59,-2296,31,36,-226,-197,-35,-2368,8,54,-265,122,135,-2460,RIGHT
31,48,-262,-177,225,-2252,30,33,-267,-96,304,-2017,16,8,-262,-284,223,-1537,6,5,-254,-302,27,-813,2,9,-265,-133,76,-322,1,47,-272,24,20,-19,-14,40,-258,-123,-5,88,-13,49,-258,163,54,119,-19,61,-262,-10,54,42,-14,48,-255,-53,40,10,-11,43,-259,-11,-30,54,0,11,-267,-24,-83,363,25,-10,-274,163,-145,973,40,-30,-276,409,-168,1696,26,-29,-264,137,-85,2396,46,-8,-235,335,-130,2836,50,112,-285,620,0,2878,47,57,-231,-496,146,2456,43,94,-249,-164,132,2192,54,122,-253,-549,34,1714,41,127,-245,-445,129,1058,41,128,-245,-195,178,596,47,127,-257,5,155,10,45,152,-251,179,106,-516,40,130,-237,120,73,-1053,56,109,-251,49,82,-1486,54,120,-247,275,110,-1824,81,65,-259,410,191,-2082,78,56,-279,278,186,-2383,44,38,-279,-119,228,-2411,RIGHT
1,40,-260,-20,14,-1,0,33,-260,-21,21,-29,5,55,-264,-111,-6,-162,25,128,-271,-21,-63,-979,10,128,-264,52,175,-2355,21,63,-224,404,528,-3208,61,-31,-217,355,764,-3300,66,-71,-240,-793,874,-2792,100,-68,-305,-19,329,-1288,91,-74,-284,-397,-451,354,63,-47,-244,141,-507,1529,61,-3,-253,397,-265,1978,56,8,-294,367,-226,2396,47,-41,-254,-252,-373,2480,33,-26,-220,68,-350,2614,23,77,-267,-521,-328,2130,3,80,-244,-448,-123,1458,15,123,-259,170,-34,786,4,73,-266,-150,-12,356,-2,59,-260,163,-26,127,-2,41,-261,-14,7,-25,-5,36,-263,40,38,-48,0,26,-260,-37,39,-69,0,42,-264,36,50,-72,1,35,-261,-9,28,-138,-1,35,-261,-20,-8,-158,-1,36,-264,76,-32,-170,1,30,-259,-62,-49,-189,1,62,-265,-39,-47,-399,2,52,-261,50,-73,-657,LEFT
22,124,-238,-229,27,-1410,-1,105,-257,1,429,-2450,25,23,-233,-359,607,-2944,58,5,-251,-396,955,-2915,71,-39,-264,-989,994,-2425,92,-13,-303,-324,507,-1253,88,-26,-296,-295,-283,16,59,1,-283,405,-526,1043,44,35,-277,499,-409,1456,39,-14,-253,354,-294,1688,43,8,-270,444,-411,2014,28,13,-261,130,-525,2073,34,52,-251,86,-511,1996,7,63,-256,-206,-353,1653,-3,70,-255,-225,-170,1168,10,99,-259,151,-19,828,5,61,-252,-381,68,462,2,60,-259,67,40,269,1,58,-261,-47,-12,160,3,38,-255,-71,0,79,-3,49,-264,65,42,31,-4,38,-261,-101,22,15,0,41,-258,-19,34,-1,-1,45,-258,0,28,-5,1,46,-262,-35,-6,-27,0,46,-258,27,1,-61,0,39,-258,-73,2,-97,1,40,-262,88,-23,-74,-3,47,-264,49,-12,-72,1,53,-265,40,-49,-235,LEFT
0,60,-260,-82,-86,-429,-3,88,-257,-39,7,-891,1,96,-253,0,209,-1599,12,79,-252,118,423,-2174,19,17,-235,-343,592,-2473,40,8,-248,-308,779,-2358,62,-15,-248,-858,602,-1892,65,7,-268,-634,471,-1230,61,18,-280,-479,200,-377,54,-19,-273,423,-102,560,58,59,-304,470,-278,1097,40,-1,-280,235,-344,1383,53,-9,-251,563,-520,1721,46,45,-269,190,-626,1904,12,34,-269,94,-557,1858,14,33,-244,61,-509,1756,3,47,-243,-58,-360,1525,-4,87,-265,-73,-126,1143,-11,73,-252,-230,-33,724,-2,72,-256,-8,-7,488,-9,62,-261,-21,26,307,-4,53,-255,-96,15,146,-11,50,-257,-22,30,44,-11,46,-259,0,40,-10,-8,40,-262,16,34,-18,-7,48,-262,-56,11,-32,-8,49,-259,20,14,-72,-5,51,-261,-10,10,-111,-8,47,-259,-44,1,-197,-1,62,-255,-10,25,-343,LEFT
-5,94,-254,89,94,-813,5,89,-259,185,160,-1266,1,83,-261,-23,248,-1863,22,59,-247,337,417,-2396,28,-16,-240,-406,575,-2631,42,-20,-241,-436,706,-2423,65,-10,-282,-362,645,-1891,76,-53,-281,-349,140,-863,66,-28,-290,16,-191,204,45,-29,-271,48,-277,995,52,3,-269,749,-288,1506,34,-24,-269,-4,-296,1912,46,16,-257,314,-431,2189,44,50,-260,404,-402,2114,2,4,-253,-215,-162,1936,18,61,-250,-210,-149,1527,14,65,-255,-50,-10,1066,12,57,-244,-584,-45,705,23,68,-263,18,-153,305,-20,48,-256,-153,-156,86,-11,18,-242,-25,-16,121,-12,51,-269,74,25,21,-13,29,-257,-61,32,-41,-11,34,-262,86,33,-31,-11,30,-261,-21,23,-21,-9,33,-258,-33,21,-22,-9,38,-259,3,38,-35,-3,44,-257,-78,44,-145,-2,44,-261,109,-1,-213,-3,45,-260,-46,17,-340,LEFT
-3,57,-268,79,49,-564,-3,49,-253,-58,84,-878,8,77,-252,99,130,-1213,11,63,-270,166,129,-1649,13,35,-256,-21,149,-2079,31,9,-245,-64,268,-2282,48,-3,-255,-110,351,-2178,41,-24,-280,-741,281,-1680,53,-29,-270,-480,46,-891,30,11,-281,-220,-30,-335,22,7,-262,24,-113,82,17,11,-253,74,-94,422,15,1,-261,201,11,736,25,-39,-260,298,94,1170,21,-59,-255,294,78,1641,27,-1,-270,121,-41,1929,10,-4,-281,87,-122,1930,16,-15,-242,-187,-210,1887,23,63,-274,25,-295,1746,4,54,-263,-590,-247,1289,15,73,-249,-170,-193,817,15,68,-257,-102,-23,586,6,47,-261,-81,-1,347,4,47,-270,35,45,228,3,40,-262,-183,-5,127,0,41,-263,58,16,41,0,37,-263,-9,2,6,-2,29,-259,12,23,-15,-1,37,-260,33,23,-6,0,35,-259,-7,11,-40,LEFT
-1,37,-259,42,17,-58,-1,39,-262,11,15,-121,1,47,-262,15,18,-259,2,59,-256,66,53,-538,20,98,-260,111,157,-1147,18,84,-264,245,254,-1882,22,44,-258,213,342,-2353,43,6,-249,11,319,-2448,51,-35,-257,-247,302,-2239,54,-20,-257,-942,266,-1870,61,11,-268,-67,210,-1297,58,15,-288,-309,42,-682,51,-42,-271,182,-189,142,37,-7,-265,374,-230,785,37,-26,-254,306,-164,1236,21,-29,-257,338,38,1379,36,-23,-254,41,-76,1583,45,18,-270,185,-207,1819,27,-8,-261,-540,-293,1792,19,17,-255,525,-232,1763,29,79,-273,467,-123,1489,13,35,-258,-526,7,943,3,35,-255,117,97,793,9,62,-262,-184,133,528,17,9,-258,-317,104,395,1,40,-269,24,-6,265,11,42,-266,-142,-13,100,3,18,-260,-143,-4,1,5,31,-267,83,3,15,8,33,-267,-19,6,-29,LEFT
5,16,-259,-66,-3,-33,7,31,-259,50,15,-71,9,30,-259,-12,-17,-95,9,38,-265,-12,-66,-246,2,36,-261,10,-75,-369,5,43,-262,-51,-58,-611,9,67,-264,144,-70,-974,3,62,-257,46,-44,-1519,8,45,-255,125,106,-1883,3,-5,-252,-128,182,-1977,28,-20,-253,290,205,-1753,30,-36,-256,-683,212,-1655,44,9,-290,-226,196,-1388,40,-14,-278,-381,-23,-964,33,-27,-257,-451,-127,-529,26,2,-281,183,-161,11,9,-24,-259,-48,-177,295,14,-16,-264,427,-96,871,11,-36,-256,347,-104,1204,13,-46,-249,345,-149,1581,13,19,-282,365,-124,1954,9,-40,-229,-334,-131,1903,9,10,-232,-27,-78,1763,12,86,-275,-103,63,1621,7,27,-245,-269,128,1188,16,64,-261,-80,89,932,0,67,-284,-184,67,601,2,50,-263,-178,3,265,-1,54,-263,-35,5,154,1,47,-267,-3,14,33,LEFT
-2,38,-264,8,15,-23,-3,36,-259,-6,-6,-32,1,38,-259,-14,-18,-37,-1,43,-262,33,0,-76,0,45,-264,-1,29,-146,1,47,-261,-31,-13,-266,-1,54,-261,47,-35,-511,6,87,-270,219,-21,-1011,1,66,-267,179,45,-1573,12,40,-248,90,66,-1919,12,19,-252,36,124,-2078,20,-25,-246,-230,123,-2103,25,-18,-253,-478,270,-1920,27,-30,-249,-1081,498,-1682,40,14,-291,-248,372,-1082,47,-16,-290,-197,-101,-218,39,-28,-267,197,-347,648,23,6,-265,509,-233,1284,16,-17,-257,167,-74,1572,21,-5,-246,97,-87,1767,22,33,-276,296,-85,1855,22,15,-257,-401,-149,1766,25,23,-245,106,-215,1632,20,97,-269,-103,-175,1407,7,71,-258,-375,-109,974,3,62,-255,-150,-78,624,4,60,-262,-456,-104,457,1,71,-261,-3,-42,227,0,66,-260,-102,-12,56,-1,57,-259,9,14,8,LEFT
-2,50,-258,6,45,-17,-3,52,-260,7,27,3,-1,52,-258,-10,20,-21,-1,53,-261,12,-1,-56,1,58,-260,12,7,-59,-2,52,-260,34,14,-105,7,80,-264,-65,-22,-271,4,106,-258,30,5,-769,6,129,-262,402,118,-1415,15,69,-241,151,160,-2009,10,27,-251,19,206,-2285,20,-10,-255,-247,178,-2316,21,10,-271,-577,317,-2082,28,-19,-264,-928,383,-1685,32,-8,-277,-328,244,-899,21,-23,-266,-307,-94,69,24,10,-259,266,-256,793,16,-8,-250,517,-244,1263,17,0,-268,358,-158,1629,16,11,-287,285,-216,1795,9,9,-254,217,-312,1784,4,59,-269,256,-313,1765,-4,64,-257,-173,-264,1367,-4,70,-242,421,-238,1039,-34,18,-253,-688,-208,835,-13,47,-240,-60,-189,653,-25,71,-262,-318,-18,534,-15,66,-259,-177,28,343,-18,74,-261,41,113,145,-13,64,-260,15,92,22,LEFT
-15,58,-260,70,62,-5,-14,51,-258,-31,55,-31,-13,51,-258,47,32,-32,-14,56,-257,35,30,-54,-12,53,-260,37,38,-93,-11,55,-260,96,45,-139,-4,66,-262,21,5,-277,-10,65,-260,80,-34,-512,-4,84,-252,14,37,-970,-7,93,-264,111,124,-1562,-7,52,-250,189,220,-2006,10,20,-252,447,237,-2167,18,-25,-240,69,253,-2229,21,-34,-252,-755,327,-2018,26,-25,-262,-893,376,-1543,33,-29,-277,-680,187,-792,37,4,-276,-444,-4,-159,27,14,-278,67,-111,304,23,-15,-272,35,-106,758,33,-8,-273,571,-233,1404,23,-7,-266,-191,-354,1877,25,19,-251,-934,-645,1967,10,84,-258,-180,-827,1959,-12,94,-254,1099,-653,1769,-10,80,-235,-136,-288,1349,-3,106,-252,988,-17,1094,-8,48,-242,-244,96,682,-7,49,-255,67,70,476,-10,44,-263,-206,48,339,-3,55,-265,205,-5,294,LEFT
-8,207,-103,-8555,-236,-384,-15,335,-12,-5525,118,-365,-15,292,55,-1457,-52,-244,-14,253,71,-383,-69,0,-21,267,71,80,-105,65,-13,427,46,3111,-320,-3,-1,308,15,7499,-331,120,-23,212,42,14070,180,811,-20,-396,-206,-2787,103,-535,10,107,-264,858,33,74,-10,-36,-266,-673,108,-15,11,33,-278,275,29,53,3,21,-272,-133,14,-7,3,10,-257,3,22,-18,4,16,-260,85,55,-25,2,16,-260,-4,20,-8,6,19,-259,-49,4,9,4,18,-260,-4,8,17,3,11,-262,-14,15,9,4,11,-262,-43,11,24,2,11,-260,-29,14,12,2,14,-264,-3,16,6,4,14,-261,-33,14,13,3,15,-260,-42,21,21,5,15,-258,-70,13,13,5,14,-261,-36,27,4,5,17,-263,40,12,-5,6,10,-260,-11,13,7,4,14,-261,-13,19,11,4,13,-264,-26,18,3,TILT_R
3,17,-262,-31,6,14,3,10,-263,-87,5,0,7,2,-259,-495,-10,20,4,-9,-253,-2682,-53,-78,-17,-53,-94,-11841,137,-394,-15,379,52,-8883,569,-28,19,285,143,-842,118,-293,-4,252,43,-398,42,-117,-5,255,79,-4,-14,28,-6,258,80,-20,-5,59,-11,295,72,981,-178,-12,-10,324,37,4635,-318,-40,-12,340,-12,8433,-143,236,-14,117,-73,11114,-36,399,-26,-149,-238,-805,-94,-410,-17,-84,-221,682,42,-115,-11,-22,-264,195,175,81,6,-24,-263,-165,108,31,-2,-25,-264,-24,46,31,-2,-8,-261,-3,45,27,-1,-10,-258,135,61,57,2,-9,-257,-53,65,41,2,-5,-261,32,11,64,-1,-24,-260,-105,28,-4,-1,-23,-261,-7,23,-26,-1,-19,-259,-60,18,-20,1,-21,-260,-47,4,0,0,-18,-260,-102,-1,-6,1,-21,-258,-43,6,-9,1,-19,-257,-58,19,0,TILT_R
1,-18,-258,-15,25,24,1,-19,-261,-52,24,9,-1,-19,-258,-34,30,4,1,-22,-261,-38,22,-3,1,-16,-260,-27,-5,1,-3,-63,-248,-2012,-19,-38,0,-32,-135,-10078,125,-423,12,371,1,-9668,186,-410,8,347,66,-3015,255,-235,-12,303,67,-1320,124,-108,-13,254,78,-414,-11,-93,-17,265,68,-1,-55,-24,-23,266,81,105,-20,-48,-17,292,76,800,-88,-1,-14,364,60,4894,-375,-118,-26,334,26,10405,-49,321,-24,49,-135,6960,189,162,-10,-97,-212,2818,18,-15,-9,22,-261,1611,106,25,-10,-73,-246,-187,172,-97,-2,-70,-262,-172,128,28,2,-38,-263,-77,36,38,-4,-49,-257,-168,22,8,-4,-58,-256,-175,31,-20,-1,-44,-255,-116,-1,13,1,-36,-256,16,-8,34,-3,-36,-257,-99,16,-17,-3,-42,-257,-119,29,1,0,-33,-258,32,14,6,-3,-42,-259,-49,1,-8,TILT_R
-2,-44,-255,-299,-8,-16,-4,-30,-254,-170,-13,19,-5,-51,-250,-992,17,21,5,-73,-239,-3791,35,-102,-4,103,-215,-6143,2,-232,-3,180,17,-11558,60,-425,7,436,26,-3267,22,-181,-24,265,67,-1091,-39,-90,-17,245,83,-426,-108,-31,-19,263,86,-25,-70,-1,-21,273,83,34,1,-38,-24,281,75,336,-4,-47,-15,372,62,2673,-249,-142,-16,320,44,7362,-149,81,-32,269,-91,8542,250,169,-18,29,-132,7933,137,376,-11,-29,-255,207,127,-126,-2,-21,-252,634,100,8,-8,-44,-264,177,72,6,-1,-58,-258,18,49,-20,-4,-52,-258,-72,16,-21,-6,-52,-258,-116,-1,11,-1,-19,-256,-12,6,15,-6,-28,-255,-71,7,9,-4,-25,-257,-101,16,7,-8,-47,-254,-139,10,-16,-9,-42,-249,-36,60,31,3,-33,-260,37,59,42,-3,-25,-262,9,21,16,-4,-35,-259,-61,3,-16,TILT_R
-5,-60,-244,-1253,-21,8,-17,-70,-201,-8306,96,-278,-2,302,-14,-10547,121,-499,-12,337,-22,-3951,183,-193,-13,311,59,-2025,26,-142,-14,256,78,-663,-30,-72,-25,271,88,-192,7,-106,-23,269,75,64,50,-51,-20,254,79,-16,4,-32,-24,268,76,158,26,-42,-20,326,68,1798,-174,-75,-34,255,21,4253,-108,-44,-24,392,-21,10469,132,250,-30,-12,-42,10216,309,362,-2,-25,-250,-190,278,-210,5,-55,-243,821,175,-114,-5,-65,-256,93,117,-54,1,-67,-260,-146,102,-48,1,-57,-257,-102,35,-23,1,-25,-258,55,14,68,1,-29,-257,-3,27,38,1,-55,-253,-167,16,37,2,-43,-262,-80,8,33,0,-35,-255,-100,-2,19,0,-29,-257,-11,0,27,1,-40,-257,-32,-6,11,0,-38,-255,18,-10,2,-2,-47,-256,-111,-3,-1,-2,-49,-253,-37,-3,9,-1,-53,-249,-297,4,8,TILT_R
-14,-111,-221,-6240,-10,-170,5,111,-94,-10234,10,-419,-10,363,6,-7859,263,-205,-4,326,54,-1963,51,-143,-16,293,66,-507,-16,-76,-15,264,76,-182,-54,-72,-17,261,84,-168,11,-59,-22,255,81,-72,7,-65,-15,245,84,-4,23,-31,-21,308,70,1453,-122,-59,-19,321,36,5424,-182,-145,-30,364,-27,10511,183,160,-27,-4,-94,7970,278,250,1,18,-261,635,142,-183,-12,-93,-235,537,108,-131,-5,-60,-250,431,125,33,-4,-43,-263,-299,96,28,-2,-70,-257,-248,29,28,-3,-55,-260,-268,25,1,-1,-52,-255,-95,30,1,-7,-52,-252,-286,12,7,-5,-30,-258,17,27,20,0,-29,-258,-11,-3,22,-3,-39,-257,-50,-15,-12,-5,-45,-255,-33,-2,-1,-2,-32,-256,30,-5,33,-4,-29,-257,-20,6,6,0,-49,-252,-347,6,15,-10,-62,-236,-1100,13,17,-15,-51,-232,-5322,7,-63,TILT_R
-16,131,-52,-11682,30,-522,-5,450,33,-6935,238,-315,-24,288,44,-1591,-53,-214,-24,276,67,-339,-85,-12,-20,266,98,-286,-89,-62,-21,260,91,37,-10,-17,-25,254,92,-36,5,-24,-28,273,83,195,17,-49,-32,270,77,22,9,-72,-30,366,52,3666,-220,-69,-18,401,-16,7271,-77,16,-37,256,-40,11122,357,244,-31,-213,-106,4156,357,283,5,27,-268,1301,276,-75,-2,-65,-254,94,134,-97,-3,-52,-266,-60,28,17,1,-32,-266,-68,-21,-1,-2,-53,-258,-179,-38,-41,0,-28,-256,10,-21,28,1,-18,-256,112,-4,41,-1,-45,-256,-271,9,-17,-1,-51,-252,-49,4,0,-2,-34,-255,-5,25,31,0,-29,-257,-4,20,34,-1,-43,-258,-103,2,-2,-4,-46,-255,-448,14,-11,-2,-26,-260,-172,19,-13,-5,-37,-256,-268,5,12,-5,-33,-260,-47,-23,23,-6,-24,-254,-173,-4,56,TILT_R
-22,-36,-205,-6243,-15,-257,-12,142,-18,-11793,14,-354,-9,502,-2,-5543,69,-322,-19,275,70,-2019,-8,-225,-26,279,70,-358,-42,-45,-22,283,69,-117,-27,-43,-23,269,82,-80,-22,-30,-23,252,87,-9,5,-6,-27,253,76,117,8,2,-23,318,68,1603,-119,-42,-26,281,40,3152,-32,-69,-23,460,-30,10200,116,199,-39,118,-105,8888,374,218,-8,-147,-213,1856,251,-51,-1,-35,-260,788,131,28,-1,-43,-256,333,75,54,-6,-44,-263,-127,40,-8,-3,-54,-261,-246,-1,-17,-6,-36,-258,-6,-33,9,-7,-41,-255,-177,-29,13,-4,-34,-255,-9,-6,10,-4,-29,-257,-51,1,31,-9,-31,-256,-103,6,10,-9,-36,-255,-108,14,-5,-6,-29,-259,-68,20,-14,-6,-38,-255,3,10,-7,-4,-35,-257,23,6,-2,-10,-48,-256,-93,21,-5,-7,-46,-254,204,27,42,-5,-50,-256,125,13,2,TILT_R
7,-71,-230,-1440,-66,26,-25,-58,-250,-2332,7,6,-13,61,-129,-10294,-113,-383,-37,334,72,-11373,366,-498,-17,413,32,-1140,-169,-440,-34,302,59,-583,-115,-187,-31,253,103,-375,-66,-160,-48,257,93,-73,42,-42,-41,263,94,2,89,32,-39,322,74,1852,-73,51,-42,282,42,2974,-46,83,-30,432,-25,9395,71,406,-22,52,-97,7349,481,240,-23,31,-188,5680,262,310,-5,-43,-268,330,249,-154,2,-73,-255,114,91,-143,-2,-41,-260,-59,-10,21,-3,-58,-263,-207,-1,31,-5,-63,-260,-600,-30,-32,-6,-47,-249,-67,-68,29,-6,9,-266,145,-25,75,-7,-39,-251,-339,-19,11,-5,-38,-249,24,16,25,-7,-24,-255,72,33,-24,-6,-28,-258,-116,44,8,-6,-39,-256,-94,18,-11,-5,-29,-258,72,11,3,-4,-24,-261,-51,3,-11,-8,-33,-257,-157,-6,-5,-5,-33,-257,-24,-12,-8,TILT_R
-7,-29,-257,-118,-11,-7,-6,-31,-256,-106,7,-9,-7,-35,-255,-401,9,-9,-6,-34,-248,-579,20,23,-21,-78,-208,-7096,55,-268,-3,201,43,-12601,182,-597,-7,441,26,-4847,165,-353,-22,294,80,-1702,37,-281,-34,265,84,-370,38,-169,-37,271,77,3,46,-44,-24,280,89,227,13,18,-36,280,76,84,64,4,-26,266,75,676,-112,57,-24,333,57,2128,-214,86,-26,263,49,5467,-60,296,-13,336,-96,6290,205,327,-15,139,-59,10277,322,612,-2,-185,-246,380,293,-126,12,26,-258,1293,107,111,-2,-35,-261,65,80,8,3,-78,-258,56,41,-56,6,-26,-266,-276,40,-24,4,-51,-260,-221,-20,53,8,-1,-259,107,-35,78,7,-14,-257,-231,-20,-15,2,-30,-256,-82,-13,-12,2,-30,-257,70,-12,-29,3,-22,-260,35,-35,-1,1,-24,-258,38,-31,-29,1,-33,-258,-29,-24,-12,TILT_R
-6,46,-257,-36,5,21,-9,43,-261,-19,22,0,-15,31,-265,1888,115,39,-1,59,-289,3773,211,-234,7,-189,-221,3376,278,-926,39,-166,-217,2673,337,-1403,48,-169,-164,1839,299,-1280,59,-187,-126,1318,336,-1076,82,-205,-122,819,260,-644,96,-225,-102,326,141,-285,107,-215,-112,-55,19,86,109,-213,-115,-225,-61,255,98,-224,-114,-579,-85,288,105,-212,-123,-1047,-239,645,78,-217,-118,-2710,-428,988,94,-228,-156,-8088,-997,1099,19,77,-111,-8680,-1057,-27,-37,323,-230,-1601,-574,85,-32,202,-237,2443,31,270,-13,92,-269,1281,361,165,9,91,-256,620,214,232,16,68,-247,722,45,305,18,88,-243,-306,-59,229,6,78,-246,-74,-93,238,-2,98,-253,-216,-41,176,2,85,-251,-223,-38,128,0,100,-253,-74,-8,75,-1,98,-251,-66,-1,36,3,91,-251,-42,-4,29,10,100,-251,-72,-25,19,TILT_L
6,94,-248,-165,-39,10,7,97,-247,-479,-14,4,7,111,-250,-404,11,23,5,126,-251,-591,-1,33,7,182,-242,-520,42,-14,14,372,-236,7000,81,309,-9,-240,-41,8820,483,501,16,-9,-272,1785,330,-768,41,-168,-168,925,269,-1006,55,-203,-170,586,293,-776,81,-203,-161,295,115,-406,69,-190,-161,101,18,-13,82,-188,-157,-113,-62,155,72,-204,-154,-344,-52,232,73,-218,-150,-948,-27,363,58,-162,-193,-3961,-154,647,86,-124,-175,-8259,-708,228,25,244,-137,-6388,-941,-590,-10,252,-249,568,-570,-176,-14,117,-226,443,-60,42,-1,153,-230,50,129,129,7,146,-228,411,134,145,15,147,-231,361,69,116,11,132,-231,-6,1,96,13,144,-231,171,-1,107,17,130,-235,-82,-8,46,15,140,-236,14,-24,33,11,135,-238,24,-17,21,9,131,-238,-31,4,19,10,133,-238,-45,-5,21,TILT_L
11,137,-232,-112,-7,6,9,132,-237,-55,-1,15,9,128,-236,-161,-45,43,3,134,-241,-574,-33,46,1,121,-238,-746,-58,201,5,253,-239,1876,-89,235,-22,126,-129,10441,136,1020,22,-445,-136,3330,527,74,66,-137,-221,1649,237,-473,42,-145,-196,1124,105,-695,67,-148,-160,723,109,-520,63,-219,-147,204,27,-275,65,-213,-138,-110,19,-83,75,-189,-155,-93,24,-33,63,-194,-155,-243,14,65,82,-209,-159,-1089,-154,302,58,-284,-158,-6717,-413,230,64,53,-160,-7834,-615,-339,17,205,-170,-4901,-473,-767,9,202,-256,1753,-634,-271,-29,112,-243,-666,-175,-96,5,164,-214,-22,91,114,2,151,-216,-44,132,38,5,151,-224,-159,118,22,7,149,-225,-40,25,32,7,164,-223,-48,46,6,9,148,-221,-17,59,21,12,164,-225,51,59,-6,7,146,-228,-132,-5,-1,9,159,-222,80,-27,33,TILT_L
8,157,-220,-66,-4,29,7,153,-224,-64,9,1,3,159,-227,-19,21,28,4,162,-230,397,39,33,0,336,-236,8941,312,263,0,-320,27,8527,652,558,28,43,-273,1401,232,-441,41,-194,-154,174,-5,-394,45,-201,-173,228,47,-223,37,-188,-165,172,42,-239,51,-208,-162,-26,79,-160,63,-198,-168,-17,8,-94,57,-208,-162,-253,-46,73,64,-190,-178,-359,-90,198,55,-182,-187,-1335,-288,397,33,-204,-177,-3448,-345,492,41,-73,-207,-5829,-679,379,9,38,-201,-6305,-818,-84,-23,275,-190,-3521,-513,-274,-36,219,-194,-1186,-106,-163,-24,208,-183,-22,63,71,-18,247,-182,-186,39,82,-19,195,-175,146,60,84,-15,224,-170,383,43,89,-17,204,-179,233,72,65,-14,200,-181,151,90,66,-13,206,-185,126,84,26,-12,190,-190,107,40,16,-9,182,-189,-161,40,27,-6,209,-191,161,11,15,TILT_L
-11,207,-193,-229,29,-18,-13,194,-195,110,51,13,-18,247,-209,1433,103,48,-22,303,-172,10165,674,575,1,-222,-107,7451,734,66,69,-145,-233,1542,321,-895,20,-218,-161,608,168,-934,61,-189,-155,253,47,-456,63,-193,-157,-9,-150,-31,56,-189,-152,-12,-128,-3,55,-181,-171,-124,-41,-54,68,-203,-168,-227,-76,-48,62,-210,-177,-407,-127,56,61,-201,-178,-886,-235,271,51,-146,-190,-2608,-413,469,32,-111,-199,-4233,-775,430,5,37,-246,-4874,-780,263,-11,162,-225,-3866,-673,-189,-35,147,-231,-2085,-362,-189,-30,190,-217,-199,-49,-44,-22,141,-217,-424,72,26,-12,198,-206,-130,25,38,-20,181,-208,503,1,69,-17,105,-209,-754,25,24,-22,217,-205,240,-22,57,-26,127,-205,-97,-10,-8,-23,181,-212,153,7,15,-25,167,-211,51,-9,0,-23,165,-211,126,14,37,-22,168,-213,-151,28,3,TILT_L
-20,176,-211,91,16,6,-24,159,-215,5,61,-5,-24,200,-228,1171,151,53,-44,296,-265,5808,472,2,-23,-24,-36,10717,923,172,5,-91,-306,973,572,-1659,66,-233,-134,987,349,-1033,57,-199,-163,779,287,-514,79,-192,-136,229,87,-130,64,-189,-143,-50,36,16,78,-192,-135,-117,24,42,74,-200,-151,-132,7,68,72,-209,-150,-357,-77,156,76,-209,-158,-866,-212,360,68,-196,-164,-1875,-523,611,28,-152,-195,-4100,-544,528,41,-59,-210,-4890,-790,449,6,109,-211,-4452,-762,-58,-30,133,-256,-1086,-272,-48,-26,159,-246,-1071,-136,-93,-17,168,-230,-1850,-205,-162,-22,190,-210,-273,-131,-75,-28,201,-205,-1087,-108,-105,-23,207,-194,622,-62,80,-30,175,-201,-227,0,21,-23,184,-197,114,4,62,-29,191,-201,-22,40,39,-26,185,-200,53,27,30,-28,186,-201,11,14,25,-25,179,-199,-48,26,17,TILT_L
-24,181,-199,-66,29,15,-27,177,-203,40,58,28,-21,184,-202,-37,66,53,-33,330,-217,3957,183,-198,-7,94,-29,12682,644,788,-23,-318,-240,729,527,-1130,54,-214,-176,1066,231,-960,20,-221,-185,612,242,-583,48,-189,-172,171,171,-234,53,-174,-176,-38,43,19,46,-190,-172,-240,-37,44,47,-181,-178,-242,-30,87,40,-205,-178,-915,-76,221,41,-166,-199,-2424,-237,557,43,-93,-221,-4153,-633,522,1,8,-271,-2014,-896,628,-31,76,-243,-4729,-686,77,-26,136,-204,-3401,-256,-190,-32,194,-220,89,87,8,-23,165,-230,-48,138,-1,-21,143,-221,202,53,61,-16,163,-214,-130,7,74,-20,151,-216,34,44,106,-19,179,-221,-101,22,28,-25,151,-225,159,-9,67,-22,147,-222,29,24,84,-20,160,-217,-17,-11,42,-21,153,-215,-268,18,3,-21,164,-217,235,67,6,-17,164,-225,-191,63,-10,TILT_L
-20,151,-223,91,38,-1,-19,150,-222,21,78,12,-17,146,-225,51,123,11,-15,180,-232,1074,202,-2,-16,177,-188,8109,546,494,20,-218,-109,6847,592,137,13,-88,-260,1769,337,-921,33,-196,-173,752,169,-739,60,-168,-164,443,94,-350,54,-198,-160,35,-54,32,50,-199,-145,75,27,-14,56,-188,-159,-90,59,6,67,-197,-173,-220,-46,119,57,-241,-164,-584,-191,368,41,-197,-160,-1074,-137,469,47,-94,-204,-1180,-295,672,-3,-148,-214,-4813,-485,294,16,-52,-201,-6098,-596,30,-11,102,-233,-3201,-568,-88,-30,156,-245,-917,-317,-71,-26,136,-240,-623,-146,-110,-23,143,-231,-285,-109,-24,-30,158,-228,-373,-55,-14,-34,162,-223,26,26,34,-27,155,-215,-129,63,32,-29,163,-221,178,49,34,-30,139,-224,96,57,47,-29,164,-225,-95,23,-14,-30,135,-225,-36,18,-2,-27,155,-224,-95,37,1,TILT_L
-26,145,-221,-15,64,10,-26,158,-227,68,97,25,-26,155,-232,672,159,78,-23,142,-216,5523,573,295,-2,75,-183,7931,735,261,30,-299,-184,2369,686,-1100,57,-230,-153,1515,466,-1039,62,-199,-177,818,236,-656,64,-219,-160,285,26,-193,67,-190,-138,226,-42,28,67,-144,-145,141,84,-23,82,-173,-157,-203,-35,10,75,-191,-163,-366,-157,143,66,-218,-158,-1042,-256,428,62,-212,-170,-1505,-412,725,27,-81,-226,-2803,-449,519,28,-112,-207,-4438,-629,383,-2,13,-237,-3615,-704,142,-26,95,-254,-2700,-649,-53,-34,147,-240,-1775,-553,-103,-42,160,-229,-1041,-422,-88,-49,178,-223,-496,-179,-55,-43,147,-213,-329,18,-12,-39,183,-207,161,96,58,-39,169,-211,-86,59,29,-38,168,-206,72,24,59,-42,168,-208,99,49,40,-40,172,-207,-98,42,16,-42,163,-207,-47,3,5,-40,162,-211,-61,30,4,TILT_L
-41,172,-210,-51,45,12,-38,169,-212,88,70,19,-38,163,-213,113,112,52,-40,172,-222,462,208,69,-40,248,-221,5743,508,207,-38,-112,-126,8369,714,305,12,-255,-207,1816,773,-884,54,-203,-191,1382,641,-1034,47,-172,-178,1028,380,-824,63,-213,-176,387,217,-398,62,-192,-155,44,36,-47,64,-177,-146,-95,33,82,64,-179,-151,-179,41,70,74,-196,-162,-697,-71,235,66,-159,-188,-2427,-423,349,48,-184,-194,-3275,-628,566,17,-89,-216,-3868,-630,297,-2,22,-253,-2916,-580,6,-2,81,-242,-3329,-650,-186,-21,153,-244,-1466,-420,-214,-31,132,-244,-119,-71,-143,-21,134,-246,-47,128,-105,-16,127,-237,160,106,-3,-16,122,-238,142,75,-11,-15,126,-235,-104,36,0,-16,124,-236,9,42,29,-13,127,-240,-24,31,16,-18,126,-238,-170,10,31,-17,127,-237,-95,5,29,-18,136,-238,69,10,41,TILT_L
0,54,-257,-32,8,5,1,51,-258,-22,15,3,0,50,-258,-23,20,-2,1,54,-261,-23,33,11,0,50,-260,-24,3,-4,0,50,-257,-56,-14,15,0,53,-259,-34,7,20,2,61,-260,-94,-25,-3,0,53,-257,-82,-19,-15,-1,58,-257,-132,-5,16,-5,32,-255,-737,-11,-57,9,174,-263,24,71,301,-4,-32,-261,-233,20,-120,-4,24,-252,-675,3,-28,0,46,-259,-263,36,17,3,49,-261,-69,30,38,2,51,-258,-98,22,0,-1,49,-257,-57,11,11,0,50,-260,-26,23,14,1,46,-257,-234,-9,-9,-1,62,-261,-370,-11,-44,1,61,-257,12,6,25,0,54,-258,29,5,15,0,55,-257,31,6,19,1,55,-256,-15,25,32,0,55,-258,-29,23,28,0,56,-260,10,20,28,0,55,-258,-36,-5,21,0,59,-258,-24,4,7,-1,56,-259,-28,4,0,IDLE
1,54,-260,2,7,8,1,58,-258,31,1,4,-2,53,-256,-28,32,13,0,49,-255,-17,47,41,1,60,-261,63,32,34,-2,57,-256,-116,11,3,3,57,-259,-30,28,36,3,56,-258,-24,-3,30,1,55,-257,13,12,13,9,66,-261,19,-6,-18,0,39,-265,-354,-80,-41,-3,73,-261,-72,-109,-8,-9,54,-256,94,-48,-14,-6,52,-256,-142,-41,-44,-6,59,-254,-173,-52,-3,-6,53,-256,-413,-94,-64,-11,84,-255,-148,-89,-29,-14,68,-251,171,-36,-38,-13,65,-255,272,-20,-30,-15,57,-251,172,51,-111,-4,55,-255,284,82,-127,-8,46,-257,309,108,-159,-9,35,-256,118,57,-101,-6,37,-258,67,5,-98,-10,32,-256,55,-10,-87,-16,33,-257,25,23,-53,-16,32,-262,-34,29,-31,-15,31,-263,-93,-3,61,-9,41,-257,-149,-23,27,-13,38,-260,-181,-95,64,IDLE
-16,40,-257,-174,-98,96,-18,46,-258,-232,-101,82,-23,48,-257,-169,-138,105,-25,49,-255,-205,-103,97,-24,57,-256,-166,-60,86,-25,53,-254,-218,-68,90,-27,64,-254,-186,-55,108,-27,67,-255,-187,-56,89,-31,72,-254,-138,-35,73,-31,66,-252,-81,16,62,-32,66,-248,4,83,76,-23,70,-252,151,119,100,-22,67,-258,153,142,57,-19,65,-256,48,141,38,-17,66,-257,45,110,4,-16,64,-257,51,88,-19,-12,60,-257,70,95,-22,-14,60,-256,53,83,-50,-9,61,-254,107,132,-84,-3,52,-258,129,172,-126,1,50,-262,265,172,-98,-1,35,-260,124,87,-100,1,17,-261,94,39,-19,-5,13,-260,-524,-39,-82,-3,46,-260,-164,-61,1,-8,23,-258,-80,-55,3,-10,27,-257,-290,-23,-4,-7,42,-256,-88,-11,27,-8,30,-260,-348,1,8,-4,54,-259,-398,-9,22,IDLE
-3,61,-257,-631,-31,-22,-7,68,-256,-534,-35,-27,-7,91,-254,-152,1,-31,-8,70,-254,-6,14,6,-9,79,-255,117,12,27,-8,73,-253,99,11,33,-9,60,-254,-87,8,6,-11,77,-257,-202,-7,13,-13,68,-255,-63,-7,13,-10,80,-254,50,-2,17,-9,76,-254,10,10,2,-10,73,-253,180,9,30,-9,64,-254,-172,13,6,-10,73,-256,6,3,29,-11,72,-256,-19,0,11,-11,74,-253,-185,7,13,-8,80,-255,97,27,25,-9,75,-255,191,32,35,-8,58,-255,-7,8,8,-13,73,-254,29,18,26,-10,65,-255,-56,21,8,-10,67,-257,8,15,19,-9,67,-256,-8,11,13,-10,64,-255,-4,21,8,-8,67,-258,-30,20,4,-8,69,-257,65,-2,-7,-9,65,-256,199,25,17,-8,53,-255,147,16,18,-4,53,-254,8,-8,42,-7,56,-255,-16,-27,65,IDLE
-11,55,-255,-37,-11,89,-10,58,-256,38,64,111,-7,54,-260,53,52,149,-6,56,-256,-21,4,201,-5,61,-255,-84,-7,204,-12,55,-262,-41,76,98,-2,57,-253,-51,153,47,6,65,-266,40,121,4,5,61,-259,11,58,9,1,61,-262,13,-14,-16,6,62,-260,5,-109,-83,-1,45,-255,185,2,-164,-3,27,-247,-51,16,-93,4,49,-278,-121,-187,-34,-13,58,-266,14,-215,0,-13,46,-253,2,-43,43,-13,31,-250,-97,96,44,-12,56,-258,-116,100,60,-11,31,-247,-274,87,88,0,69,-260,-121,123,160,1,65,-257,-84,139,144,1,72,-259,128,135,107,1,48,-261,363,80,46,5,48,-270,137,22,23,3,42,-261,-104,-25,7,2,41,-257,63,18,6,5,45,-262,8,15,7,3,46,-258,-228,-33,-41,2,43,-258,-124,-41,-57,3,51,-259,-87,-51,-49,IDLE
-3,49,-256,-100,-94,11,-3,58,-267,-96,-131,26,-10,49,-257,-164,-122,18,-14,55,-256,-94,-69,25,-12,59,-254,-32,-38,51,-11,52,-251,-54,29,6,-2,63,-263,-45,70,-12,-4,58,-262,48,159,-71,1,56,-253,52,196,-75,3,55,-256,25,161,-43,0,48,-260,9,183,-64,6,50,-258,120,170,-83,10,44,-258,-1,48,-54,8,49,-256,-29,-48,9,3,50,-254,-124,-93,35,4,52,-259,-134,-85,78,-2,50,-262,-123,-83,85,0,57,-265,-108,-99,45,-1,54,-260,-110,-147,73,-6,59,-257,-86,-145,78,-7,67,-255,-130,-118,51,-11,61,-255,-78,-121,42,-13,62,-253,-56,-55,34,-14,64,-251,-28,25,26,-9,68,-255,-9,92,-28,-8,66,-254,-11,72,-19,-7,64,-256,-29,109,-14,-4,59,-258,-14,139,-39,-3,62,-261,47,92,-26,-4,59,-260,22,72,-37,IDLE
-2,64,-260,22,92,-56,0,57,-261,32,110,-80,0,57,-258,29,86,-65,3,56,-258,73,109,-55,6,46,-256,-18,52,-23,2,57,-257,32,63,4,4,49,-261,-28,64,-17,4,43,-261,-19,13,19,5,55,-259,32,10,59,7,48,-263,-99,-43,38,3,42,-258,-222,-167,98,1,67,-256,-242,-219,121,-11,55,-255,-233,-164,56,-6,73,-258,-222,-55,30,-8,69,-254,120,5,63,-3,72,-259,87,47,72,-4,37,-256,78,48,84,-1,41,-258,91,54,44,-2,32,-258,103,36,30,-2,35,-259,51,41,0,-2,33,-261,38,40,-14,0,18,-255,-139,15,31,-1,40,-263,-320,-26,9,-1,49,-261,-232,-23,16,0,42,-256,-464,-52,-5,-8,68,-260,-343,-35,-45,-7,49,-257,-233,-15,-23,-5,71,-257,18,-6,16,-6,61,-256,-54,16,17,-6,57,-255,-79,13,3,IDLE
-7,70,-256,-45,4,15,-9,64,-257,76,6,9,-8,61,-255,34,25,12,-5,52,-253,7,28,41,-5,67,-256,-117,56,58,-4,55,-254,-131,54,22,-1,66,-257,-59,18,44,-5,69,-258,-151,6,-2,-5,62,-258,-1,-24,-12,-6,66,-256,-25,-41,6,-4,68,-256,-42,-35,-16,-7,66,-253,-75,-33,-12,-7,66,-255,-21,-5,-5,-8,65,-257,30,15,-15,-8,64,-258,71,78,-16,-5,61,-260,135,144,-73,0,60,-255,108,96,-22,-2,59,-254,75,106,-16,0,59,-258,21,77,-26,0,57,-256,-27,19,9,-3,53,-255,-26,34,-19,-1,54,-257,0,63,-18,2,54,-258,-62,13,-7,0,52,-257,-70,-10,8,1,54,-258,-47,0,15,0,54,-258,-54,8,-11,1,53,-260,-41,27,20,2,58,-263,6,-5,30,4,58,-259,4,-21,8,1,57,-260,-66,-48,-3,IDLE
0,50,-256,-77,-86,33,-3,54,-256,-69,-117,71,-4,59,-256,-96,-118,79,-10,60,-254,-79,-65,55,-11,62,-256,-17,7,21,-8,62,-256,-16,-1,18,-11,60,-255,-34,10,14,-11,59,-255,9,38,0,-7,61,-259,45,55,0,-6,55,-257,18,73,-11,4,59,-257,86,61,-16,-7,53,-257,-18,76,-18,-6,50,-257,8,85,1,-5,56,-258,18,63,20,0,55,-259,5,40,5,-5,51,-255,8,41,-2,-1,47,-257,-31,42,-14,-3,54,-260,-22,43,-5,0,53,-260,-14,31,-7,1,51,-258,-50,5,-6,0,46,-258,-78,-38,5,0,53,-257,-127,-104,51,-3,60,-257,-178,-149,103,-9,60,-255,-225,-116,39,-10,62,-257,-126,-74,28,-10,65,-257,-95,-60,0,-13,63,-255,-92,-47,10,-10,59,-258,-74,-51,19,-15,66,-258,-6,-41,33,-10,67,-257,10,22,2,IDLE
-13,62,-255,48,48,-17,-12,62,-255,131,99,6,-10,61,-257,102,120,-21,-9,62,-258,14,74,4,-8,56,-256,-8,12,39,-11,59,-254,-11,-75,118,-13,57,-256,-117,-53,49,-11,63,-254,-138,-77,65,-15,60,-254,-190,-105,80,-18,62,-254,-155,-108,103,-18,69,-255,-80,-28,65,-18,66,-254,28,67,9,-16,65,-257,83,78,14,-14,67,-256,54,92,-27,-15,62,-256,129,120,-55,-10,54,-256,77,93,-55,-7,61,-256,69,70,-45,-9,55,-256,60,65,-34,-8,56,-255,159,84,-24,-2,51,-259,-8,81,-47,-5,47,-260,-6,61,-34,-7,54,-258,26,69,-42,-2,44,-259,-54,14,-13,-2,47,-260,-124,-39,30,-1,51,-258,-122,-77,47,-5,52,-257,-158,-94,72,-7,57,-257,-197,-145,101,-14,59,-256,-201,-141,86,-18,67,-258,-154,-63,35,-16,62,-256,-159,-40,11,IDLE
