AccX_0,AccY_0,AccZ_0,GyroX_0,GyroY_0,GyroZ_0,AccX_1,AccY_1,AccZ_1,GyroX_1,GyroY_1,GyroZ_1,AccX_2,AccY_2,AccZ_2,GyroX_2,GyroY_2,GyroZ_2,AccX_3,AccY_3,AccZ_3,GyroX_3,GyroY_3,GyroZ_3,AccX_4,AccY_4,AccZ_4,GyroX_4,GyroY_4,GyroZ_4,AccX_5,AccY_5,AccZ_5,GyroX_5,GyroY_5,GyroZ_5,AccX_6,AccY_6,AccZ_6,GyroX_6,GyroY_6,GyroZ_6,AccX_7,AccY_7,AccZ_7,GyroX_7,GyroY_7,GyroZ_7,AccX_8,AccY_8,AccZ_8,GyroX_8,GyroY_8,GyroZ_8,AccX_9,AccY_9,AccZ_9,GyroX_9,GyroY_9,GyroZ_9,AccX_10,AccY_10,AccZ_10,GyroX_10,GyroY_10,GyroZ_10,AccX_11,AccY_11,AccZ_11,GyroX_11,GyroY_11,GyroZ_11,AccX_12,AccY_12,AccZ_12,GyroX_12,GyroY_12,GyroZ_12,AccX_13,AccY_13,AccZ_13,GyroX_13,GyroY_13,GyroZ_13,AccX_14,AccY_14,AccZ_14,GyroX_14,GyroY_14,GyroZ_14,AccX_15,AccY_15,AccZ_15,GyroX_15,GyroY_15,GyroZ_15,AccX_16,AccY_16,AccZ_16,GyroX_16,GyroY_16,GyroZ_16,AccX_17,AccY_17,AccZ_17,GyroX_17,GyroY_17,GyroZ_17,AccX_18,AccY_18,AccZ_18,GyroX_18,GyroY_18,GyroZ_18,AccX_19,AccY_19,AccZ_19,GyroX_19,GyroY_19,GyroZ_19,AccX_20,AccY_20,AccZ_20,GyroX_20,GyroY_20,GyroZ_20,AccX_21,AccY_21,AccZ_21,GyroX_21,GyroY_21,GyroZ_21,AccX_22,AccY_22,AccZ_22,GyroX_22,GyroY_22,GyroZ_22,AccX_23,AccY_23,AccZ_23,GyroX_23,GyroY_23,GyroZ_23,AccX_24,AccY_24,AccZ_24,GyroX_24,GyroY_24,GyroZ_24,AccX_25,AccY_25,AccZ_25,GyroX_25,GyroY_25,GyroZ_25,AccX_26,AccY_26,AccZ_26,GyroX_26,GyroY_26,GyroZ_26,AccX_27,AccY_27,AccZ_27,GyroX_27,GyroY_27,GyroZ_27,AccX_28,AccY_28,AccZ_28,GyroX_28,GyroY_28,GyroZ_28,AccX_29,AccY_29,AccZ_29,GyroX_29,GyroY_29,GyroZ_29,Label 
-199.4,-8.2,-1904.8,1241.8,-6723.0,-133.2,-290.0,-46.4,-1715.8,2047.0,-9229.0,258.8,-458.2,-27.0,-1534.0,1740.6,-10448.2,104.6,-598.0,-65.8,-1350.0,2060.8,-10916.0,37.2,-758.6,-103.8,-1183.2,2080.2,-11002.8,-104.0,-938.6,-141.8,-977.4,1663.0,-10461.6,775.0,-1103.4,-148.6,-769.4,1331.4,-9391.8,519.4,-1234.0,-158.2,-625.4,1570.8,-7738.8,351.4,-1238.6,-152.6,-526.6,2124.0,-6200.8,278.8,-1369.6,-176.4,-444.4,933.8,-4837.0,336.0,-1436.6,-211.6,-285.6,83.6,-3644.4,356.4,-1470.2,-244.4,-211.4,-149.0,-2009.8,520.2,-1555.0,-230.4,-163.0,-25.8,-266.6,336.0,-1533.0,-177.2,-164.0,-792.0,1512.0,341.4,-1476.6,-180.6,-171.8,-667.2,3421.2,457.6,-1450.6,-171.0,-214.6,-1831.6,6021.2,569.4,-1338.6,-121.8,-306.8,-2391.0,8826.8,975.6,-1153.8,-120.2,-571.8,-2971.8,11043.0,900.8,-964.6,-92.4,-846.8,-2038.6,12727.2,920.0,-775.6,-8.6,-1016.0,-1715.8,13295.6,32.0,-685.0,45.2,-1307.4,-2244.0,12975.6,71.2,-378.6,8.2,-1474.8,-3189.2,12064.6,-580.4,-144.0,164.8,-1683.4,-2219.0,10276.0,70.8,-44.4,101.2,-1861.8,-406.8,8367.2,-128.8,68.8,95.6,-1911.0,589.2,5642.4,-161.8,72.8,40.4,-1872.8,443.6,3383.4,-341.4,170.0,51.2,-1775.2,74.8,1801.4,-488.6,177.8,66.8,-1727.4,-866.8,642.8,-243.2,144.4,72.4,-1702.0,-695.2,4.4,-27.0,166.0,85.0,-1666.6,-195.4,-270.4,173.4,UP
157.8,83.4,-1664.2,-232.0,-586.2,92.6,145.2,93.2,-1722.2,-307.0,-1230.8,84.4,150.4,102.4,-1830.6,-252.2,-2629.8,23.2,88.8,119.6,-1844.2,-121.4,-4726.0,54.8,-5.6,107.6,-1783.8,-338.2,-6606.6,-440.4,-188.2,122.0,-1721.6,-345.4,-8235.4,-770.2,-279.4,141.2,-1630.4,548.4,-9439.0,-579.8,-414.0,98.2,-1478.4,1480.4,-10528.8,-1042.2,-636.8,48.2,-1319.2,2342.2,-10978.6,-929.8,-779.8,0.6,-1137.0,3062.0,-10822.0,-845.2,-1060.2,-95.6,-945.4,3255.4,-10076.6,-512.0,-1172.0,-184.6,-726.0,2653.8,-8548.6,-594.2,-1292.0,-217.8,-539.8,2634.8,-7257.0,-17.6,-1380.4,-206.8,-447.2,-162.6,-5278.6,287.8,-1410.0,-221.2,-410.2,-1476.0,-3741.6,485.8,-1442.0,-217.0,-335.4,-1096.2,-2560.2,770.2,-1533.2,-240.0,-270.6,-863.0,-896.8,306.0,-1551.8,-209.8,-255.4,-1019.6,1034.8,233.4,-1516.4,-166.4,-284.2,-864.0,2841.4,604.2,-1432.8,-141.2,-320.8,-996.8,5060.6,832.2,-1330.8,-126.4,-430.2,-1013.4,7660.8,736.2,-1244.0,-109.6,-600.6,-1078.2,10206.2,699.6,-995.2,-55.4,-773.8,-1113.4,11998.4,768.2,-777.4,-18.2,-1072.6,-1933.4,12524.8,625.2,-733.4,-18.8,-1321.4,-2222.8,12869.2,346.4,-206.2,92.2,-1482.0,-2788.6,11443.6,729.8,-303.6,107.2,-1709.8,-1328.4,10144.6,-895.6,-247.2,93.0,-1793.6,760.6,8180.0,-254.8,16.0,92.0,-1844.6,1129.6,6033.0,-639.6,-37.0,31.6,-1842.4,437.6,3499.8,8.4,UP
141.2,7.4,-1766.4,-752.0,1983.6,-950.2,80.6,29.4,-1735.8,-1286.8,683.6,-259.0,112.2,54.8,-1698.0,-324.2,120.0,101.8,74.8,47.4,-1671.6,-217.8,-346.6,281.2,105.0,58.8,-1675.4,-273.8,-797.6,311.4,82.8,61.4,-1721.4,-234.8,-1512.0,236.8,62.8,66.8,-1814.6,51.8,-2940.6,371.8,43.0,54.2,-1860.2,476.6,-5278.2,160.6,-64.0,49.8,-1804.8,1590.8,-7964.8,-108.6,-161.0,19.2,-1720.0,2221.4,-9917.6,58.8,-377.6,-14.4,-1539.4,2743.4,-11419.0,-47.6,-579.2,-88.2,-1336.0,2344.2,-12303.8,77.0,-813.2,-99.6,-1132.6,2753.6,-12183.8,188.8,-964.6,-174.8,-905.6,2869.0,-11400.2,202.2,-1125.4,-244.0,-639.8,1839.8,-10060.2,-464.8,-1344.0,-241.2,-461.8,-110.8,-7647.6,-137.0,-1406.4,-226.6,-379.8,-1072.2,-5189.0,178.8,-1412.8,-254.6,-264.6,-1130.8,-2914.8,-121.0,-1522.4,-273.6,-216.0,-676.0,-732.0,-138.6,-1573.6,-242.0,-251.0,-1031.4,1577.4,548.8,-1483.8,-193.2,-277.6,-1898.0,3965.2,775.8,-1403.6,-173.4,-372.6,-2710.4,6217.0,846.4,-1354.4,-149.2,-446.8,-3059.2,8547.4,1071.2,-1206.8,-50.6,-719.2,-3147.0,10630.0,1531.4,-969.0,-30.0,-930.6,-2856.8,11749.0,1586.4,-694.4,62.6,-1112.2,-2846.4,11809.6,1436.8,-645.6,75.0,-1366.8,-1658.2,12516.2,902.2,-263.8,178.6,-1487.4,-2631.4,11120.0,603.8,-258.0,212.6,-1651.6,-407.2,9656.4,94.4,-41.4,198.2,-1791.4,-29.6,7699.0,1140.2,UP
61.8,163.6,-1801.4,1549.4,5233.4,690.4,102.0,94.2,-1813.0,962.0,3469.4,162.6,101.0,96.0,-1779.2,-360.6,1768.0,250.2,181.0,112.2,-1722.4,-676.4,667.8,-121.4,133.0,120.4,-1711.0,-675.8,-102.6,14.0,145.6,117.6,-1713.4,-362.4,-840.4,118.2,161.0,117.8,-1776.2,-541.8,-1968.6,104.2,127.6,123.6,-1876.4,-195.6,-3952.4,-61.6,94.8,139.4,-1931.0,267.4,-7087.8,-323.0,-83.0,126.0,-1830.6,1048.8,-10179.2,-44.8,-236.4,98.8,-1635.8,1034.6,-12075.2,-154.4,-441.6,58.2,-1427.6,2006.6,-12983.6,-393.6,-640.4,11.0,-1211.8,1624.8,-13014.8,-574.4,-904.0,-19.4,-930.2,1995.4,-12048.4,-325.4,-1120.4,-72.0,-722.0,2115.2,-9734.4,-1028.4,-1263.2,-164.0,-522.6,1741.2,-7643.2,-578.8,-1319.6,-174.4,-464.2,1541.6,-5791.6,-681.8,-1447.0,-257.8,-277.8,2460.2,-4071.6,-366.2,-1485.2,-220.0,-225.4,-314.8,-830.6,622.0,-1459.0,-201.4,-232.4,-1688.8,1580.2,666.6,-1470.4,-172.0,-278.4,-1731.0,3704.8,752.2,-1433.2,-142.4,-340.4,-1959.8,6796.4,1079.0,-1305.0,-120.8,-447.0,-2428.8,10856.0,1323.6,-993.4,-74.0,-666.6,-1525.6,13803.6,829.6,-799.8,4.0,-1013.0,-1537.4,15069.6,485.4,-404.6,0.2,-1290.6,-3751.4,14524.2,297.8,-311.4,105.6,-1578.6,-1467.8,12319.0,-1163.0,1.2,83.4,-1889.4,-2532.8,9468.0,-812.4,-116.0,131.2,-1894.6,-287.6,5998.2,15.8,84.2,111.2,-1803.2,128.6,3813.0,-293.6,UP
23.4,64.8,-1798.6,395.2,2259.0,-143.6,94.0,43.0,-1740.0,-457.6,1195.0,81.0,91.2,83.8,-1720.6,-302.4,267.8,46.8,80.2,84.0,-1746.6,-343.6,-662.6,-3.0,75.2,94.0,-1771.8,-569.8,-1990.6,-116.0,65.0,115.6,-1847.2,-765.4,-4088.6,-318.2,34.8,140.0,-1931.4,-556.2,-7342.4,-759.2,-132.2,145.2,-1828.4,-460.4,-10689.4,-1110.4,-306.6,97.6,-1589.8,274.0,-12697.8,-1360.6,-588.0,103.4,-1346.6,3648.2,-13235.0,-422.2,-735.8,60.0,-1082.4,4779.2,-12835.2,-150.4,-933.8,-42.0,-839.0,4584.8,-11813.0,89.0,-1195.4,-79.8,-632.8,3063.0,-10069.8,201.8,-1297.4,-142.6,-443.8,1878.2,-8156.0,-278.8,-1403.2,-221.6,-365.6,558.4,-5861.0,-785.2,-1582.2,-259.2,-267.0,-116.8,-3780.8,-1027.6,-1581.2,-255.8,-160.6,-261.6,-1568.0,-139.4,-1576.8,-241.8,-186.2,-987.4,540.8,641.2,-1531.8,-211.4,-263.4,-1764.0,1957.6,842.6,-1505.0,-202.6,-253.8,-2111.8,3523.2,1060.2,-1452.4,-148.4,-237.0,-2051.6,6120.4,1585.6,-1368.6,-99.8,-382.2,-2350.2,9501.6,1388.0,-1266.8,-29.4,-628.8,-2130.0,12129.4,1375.6,-986.8,47.8,-906.2,108.4,13340.4,1253.0,-648.6,16.6,-1187.4,-1274.8,13501.6,-67.4,-554.0,12.0,-1468.6,-1561.6,12174.4,-1420.0,-294.6,73.6,-1632.6,-4290.8,10551.6,-459.6,-124.2,232.4,-1720.8,-2105.0,8485.2,-341.0,25.0,127.8,-1840.4,558.0,6769.6,-470.6,45.8,123.8,-1822.6,1135.2,4390.0,515.0,UP
70.8,109.0,-1773.8,955.0,2837.8,-16.6,126.6,67.6,-1731.2,528.0,1493.2,0.6,126.6,75.2,-1745.2,-611.4,506.0,-66.4,111.6,85.8,-1749.0,-243.0,-500.2,245.0,147.6,96.2,-1783.8,-751.8,-1847.0,339.2,129.0,128.8,-1858.8,-1188.8,-3990.2,126.4,109.2,158.4,-1879.2,-1060.8,-6838.6,-454.8,-51.6,190.6,-1812.2,-889.4,-9639.2,-986.2,-314.2,198.6,-1627.6,-263.8,-11413.8,-1153.6,-499.2,147.2,-1401.4,1489.0,-12064.2,-965.2,-633.4,75.0,-1183.6,2974.6,-11867.8,-460.6,-849.0,45.0,-996.2,2746.0,-11347.2,216.0,-1096.4,29.0,-790.8,2270.4,-10713.8,-4.6,-1226.0,-44.0,-564.4,1271.4,-9124.6,-210.8,-1310.2,-79.6,-456.8,486.4,-6920.6,-349.8,-1447.4,-105.6,-310.4,-152.0,-4523.4,-196.2,-1565.4,-130.2,-265.8,-1063.2,-1715.2,-299.0,-1538.2,-153.0,-287.4,-951.4,448.8,94.8,-1494.0,-115.6,-370.0,-336.2,1713.2,538.2,-1476.6,-91.8,-349.4,-1052.6,3173.4,900.6,-1401.0,-50.2,-367.4,-1895.8,5384.8,1126.2,-1334.4,-26.6,-462.6,-2504.0,8067.8,1269.0,-1214.2,-1.4,-589.4,-906.2,10572.0,1516.8,-1055.4,51.0,-825.4,-596.4,12794.0,1678.4,-718.6,155.8,-1100.4,-73.4,13675.6,1050.8,-515.4,144.2,-1394.8,-1918.4,13095.4,-220.0,-281.8,186.4,-1524.0,-1531.6,10806.4,943.6,-200.2,150.8,-1766.6,-592.2,8869.2,124.8,-95.8,217.8,-1796.0,628.8,6815.0,1220.8,113.8,155.2,-1802.2,870.4,5086.0,676.6,UP
21.8,141.0,-1800.2,1289.8,3099.2,60.4,244.0,66.8,-1761.4,-352.8,1439.6,-542.8,130.4,73.2,-1789.4,-529.0,-254.4,18.4,141.8,169.4,-1685.4,-111.4,-591.6,89.4,136.6,103.6,-1721.6,-325.0,-1334.8,-308.2,91.4,104.0,-1836.6,-531.2,-3050.0,-222.6,106.0,138.4,-1944.8,-152.2,-6200.8,-129.4,-40.8,162.6,-1847.0,66.4,-9617.4,-390.6,-193.0,204.2,-1646.6,650.2,-11856.4,-857.8,-432.0,151.4,-1408.8,1394.8,-12640.0,-702.8,-616.8,121.2,-1202.0,2108.8,-12552.0,-886.6,-868.6,8.0,-998.6,2511.2,-11812.2,-813.6,-1066.8,-22.2,-811.4,2370.4,-10400.6,-684.2,-1281.0,-69.8,-591.4,1910.4,-8295.8,-344.0,-1343.6,-112.4,-465.4,585.8,-5913.8,301.4,-1428.6,-151.2,-416.4,-445.2,-3275.0,207.2,-1477.4,-178.6,-353.2,-281.8,-771.8,263.6,-1512.0,-159.0,-369.2,-594.6,1380.6,509.2,-1467.0,-116.2,-386.2,-1306.6,3542.8,875.6,-1402.4,-78.8,-412.6,-2308.0,5813.8,1262.6,-1323.0,-53.2,-531.6,-2824.4,8754.6,1533.2,-1142.0,31.4,-688.0,-1453.4,11045.0,1725.2,-944.8,76.6,-962.4,509.0,12645.8,1829.8,-709.8,50.0,-1171.2,-86.0,13834.2,1190.8,-459.2,100.8,-1426.6,-308.8,13429.6,1003.0,-200.6,139.0,-1657.6,-1449.8,11756.2,-241.8,10.2,170.4,-1861.8,-178.0,8593.0,250.2,182.0,109.8,-1859.0,701.0,5441.4,-1281.0,92.4,44.2,-1878.0,-355.6,3139.0,-165.8,176.0,66.6,-1788.0,-868.0,1271.6,145.4,UP
121.8,93.0,-1757.8,-933.4,96.6,125.6,189.4,154.8,-1756.4,-740.4,-885.6,112.2,120.4,134.0,-1799.4,-676.8,-2163.0,-326.4,115.2,151.6,-1908.6,-802.4,-4599.0,-390.0,83.4,186.0,-1911.0,-585.6,-7987.6,-292.0,-73.4,226.0,-1825.6,-264.8,-11251.4,-437.6,-292.6,218.4,-1597.8,1284.4,-13557.8,-718.6,-549.6,114.4,-1309.8,2005.6,-14233.4,-1225.4,-811.0,59.4,-1010.4,3400.6,-13545.0,-408.4,-1060.6,-23.0,-776.8,3601.8,-11841.2,-256.6,-1242.8,-84.4,-530.8,1781.0,-9239.4,124.8,-1352.2,-67.4,-427.6,-2026.6,-6140.8,-48.6,-1434.6,-60.4,-383.4,-3200.6,-3610.0,104.4,-1489.0,-27.2,-454.2,-805.4,-1895.0,14.8,-1538.0,-23.2,-380.2,725.8,-801.4,179.6,-1527.2,-47.8,-328.0,404.0,1291.0,533.8,-1476.8,-57.2,-284.4,-193.4,3659.6,1000.4,-1422.6,-34.0,-346.6,-1418.6,6511.2,1568.4,-1364.0,18.0,-496.8,-2252.6,9902.8,2046.4,-1100.2,70.0,-742.2,-1214.4,12177.0,2336.0,-982.2,187.6,-1038.0,179.6,12538.8,1155.2,-638.6,179.4,-1322.6,1034.2,11732.6,1763.0,-506.8,248.6,-1414.2,854.0,10621.6,970.0,-280.4,206.6,-1594.8,441.0,9585.0,-464.4,-220.4,145.4,-1667.2,-189.2,7966.6,-7.8,-99.8,204.4,-1701.0,-685.4,6361.8,-736.6,-22.6,125.4,-1761.4,-258.2,4762.8,-342.6,84.4,94.8,-1807.0,441.2,2694.4,-408.0,59.2,71.6,-1779.0,-166.0,1104.4,-65.0,82.0,117.8,-1748.6,-87.4,-116.8,-133.0,UP
102.6,141.4,-1757.2,-604.6,-1390.6,-154.4,61.8,140.8,-1796.4,-610.6,-2893.8,-279.0,60.2,160.8,-1819.6,-737.6,-5050.0,-444.4,-77.6,213.0,-1784.6,-862.4,-7141.2,-817.4,-243.0,217.2,-1704.4,-425.2,-8903.8,-941.0,-398.4,176.4,-1569.2,-327.8,-10457.0,-1174.6,-547.6,186.8,-1401.4,907.2,-11898.6,-1047.4,-744.8,144.0,-1194.8,1921.8,-12404.8,-1242.6,-933.6,75.6,-927.0,2667.0,-11950.4,-489.2,-1159.4,71.0,-709.0,1730.0,-10188.6,-453.2,-1282.4,0.0,-487.0,906.4,-7985.4,-168.0,-1370.4,-13.4,-450.8,678.2,-5574.6,-395.0,-1510.6,-53.6,-350.6,724.8,-3656.0,-175.6,-1611.6,-67.6,-207.0,1402.6,-1219.2,339.0,-1543.2,-23.6,-207.4,-321.2,2047.8,917.8,-1475.0,-7.8,-334.6,-1996.2,4219.0,973.6,-1478.0,13.2,-441.4,-1657.0,6045.0,1314.8,-1376.4,75.2,-532.8,-1326.8,8211.6,1631.8,-1187.8,118.2,-745.2,-2128.4,10209.2,1634.4,-1060.4,147.2,-978.0,-1605.8,11379.4,1774.8,-844.8,266.6,-1093.2,816.6,11152.0,2470.2,-469.6,227.8,-1345.4,866.6,11269.2,378.0,-493.2,123.0,-1458.8,1588.2,10400.2,-80.2,-270.4,49.6,-1555.4,1765.0,10025.2,565.6,-23.6,87.8,-1748.4,589.6,8059.4,-13.6,-123.8,42.4,-1875.6,285.8,5580.0,-291.8,39.4,28.8,-1842.0,-535.2,3178.4,8.6,143.6,53.2,-1799.2,263.6,1481.2,-51.6,109.8,44.2,-1784.2,-665.4,-148.6,15.0,53.2,49.0,-1760.6,-498.8,-1265.6,182.8,UP
1.4,241.0,-1602.8,580.8,324.2,-768.6,14.8,212.2,-1600.0,532.8,205.4,-654.6,-48.4,179.6,-1613.8,268.0,250.8,34.8,-32.8,166.0,-1602.2,371.8,283.0,123.8,-42.2,155.2,-1613.0,-346.0,415.2,63.8,-26.8,152.0,-1589.0,-494.8,517.4,-7.4,-24.8,134.4,-1556.0,-337.4,845.8,51.0,-4.2,120.0,-1487.0,-177.8,1539.0,360.2,8.4,80.4,-1379.2,-526.4,2993.6,722.0,112.6,93.8,-1309.8,-841.2,4936.0,1268.2,255.8,148.6,-1399.2,-1081.8,6813.8,1772.0,441.8,206.4,-1507.6,-1805.8,8213.2,2049.4,694.8,271.6,-1606.4,-2411.2,8327.8,2408.8,889.2,340.0,-1660.8,-1596.4,7319.8,1700.0,1001.8,379.4,-1597.8,-1746.2,6050.4,624.8,1058.8,380.0,-1541.0,-1790.8,4415.4,118.0,1107.4,399.2,-1431.2,-1313.4,1954.8,326.0,1124.4,413.2,-1506.0,572.4,-306.4,29.8,1086.2,377.4,-1528.8,769.6,-2360.8,-180.2,1037.2,347.8,-1545.6,706.0,-3783.6,-248.2,988.2,335.4,-1615.6,483.0,-5490.2,-805.6,925.2,344.8,-1628.2,1088.0,-7552.0,-1077.2,703.4,325.0,-1650.8,1020.2,-8941.8,-1556.2,507.6,277.8,-1657.8,556.6,-9951.8,-1226.4,262.4,271.4,-1563.0,1389.4,-10434.0,-1950.4,36.6,195.0,-1442.6,612.8,-9855.2,-1829.2,-103.4,173.0,-1383.6,1210.0,-9078.0,-1482.4,-388.8,136.2,-1348.4,887.0,-7292.8,-1008.0,-495.4,99.8,-1274.2,909.8,-5421.4,-286.2,-681.0,78.8,-1326.8,738.4,-2926.2,-453.4,DOWN
-710.6,24.6,-1268.4,-302.8,-1186.8,408.4,-706.0,32.0,-1278.2,-545.4,394.2,440.4,-720.0,24.0,-1309.2,-625.4,1718.0,791.2,-650.6,47.0,-1295.6,-883.2,3064.4,741.8,-570.8,74.4,-1381.4,-1013.6,4525.0,1022.8,-484.2,110.2,-1466.4,-1245.8,5851.6,1376.0,-294.2,166.6,-1471.8,-1629.0,6630.2,1778.8,-184.8,190.8,-1528.4,-1672.0,7705.2,1585.0,-1.0,224.0,-1400.2,-1863.6,8683.0,2083.2,213.8,273.2,-1424.4,-2096.2,10328.2,1974.2,532.6,364.6,-1370.8,-2630.2,11902.8,2481.8,834.4,421.6,-1411.4,-2774.0,12841.0,2152.4,1092.6,496.2,-1463.0,-1967.2,11786.8,1911.2,1282.4,519.4,-1500.8,-1761.4,9870.6,1504.2,1435.6,504.4,-1398.8,-827.2,6353.8,1079.8,1396.4,492.8,-1389.8,220.0,2801.0,763.4,1419.8,395.6,-1358.6,983.8,195.4,157.6,1253.8,440.0,-1224.8,-4.6,-838.4,-311.6,1336.8,468.4,-1210.8,578.8,-1622.2,231.2,1364.8,439.8,-1334.2,1220.4,-3588.0,100.2,1409.0,400.4,-1483.6,933.0,-6901.2,-42.2,1303.8,440.4,-1582.8,890.4,-10260.2,-562.0,1130.0,451.0,-1602.4,2750.4,-13588.4,-773.2,800.6,353.4,-1514.6,2905.0,-15515.0,-1285.4,456.2,227.0,-1407.8,2519.8,-15047.2,-1857.4,146.4,227.4,-1243.8,1613.4,-13302.6,-1503.4,-221.8,112.2,-1163.6,1831.8,-10300.8,-1245.2,-491.0,55.8,-1193.0,-122.8,-6084.2,-1003.2,-588.2,57.0,-1220.4,-1570.2,-2113.2,-520.4,-599.0,111.8,-1326.6,-1507.8,109.6,-307.6,DOWN
-663.2,107.4,-1385.8,-912.2,826.6,149.4,-639.4,123.8,-1356.8,-218.0,1310.4,501.2,-591.8,119.0,-1368.8,-594.4,2822.6,554.2,-475.6,147.2,-1370.6,-892.4,4338.6,990.4,-370.8,169.4,-1370.0,-1086.4,5987.2,1751.6,-220.4,179.8,-1356.2,-1863.2,8018.6,1885.6,-60.6,220.6,-1338.4,-2964.4,10707.6,2331.8,265.8,277.4,-1312.6,-3414.2,13115.4,3474.8,658.4,413.0,-1353.2,-3468.8,15090.8,2980.6,1020.0,548.2,-1364.8,-3647.6,14854.2,3046.4,1379.4,665.4,-1380.6,-1944.8,12755.8,2335.6,1491.6,676.8,-1300.0,-2074.8,9671.8,764.8,1500.2,674.2,-1228.4,-1015.6,6172.4,460.6,1446.8,577.0,-1208.8,-158.8,2801.8,-280.6,1381.0,435.2,-1154.2,-1530.8,-53.8,-272.2,1424.2,549.6,-1083.2,237.2,-1237.6,54.8,1464.0,547.2,-1054.0,1145.8,-2279.2,-65.8,1474.0,528.6,-1199.2,1094.4,-4055.4,-392.6,1485.6,564.8,-1421.4,1854.8,-7172.6,-725.0,1423.4,590.4,-1534.0,2861.8,-11344.2,-1372.4,1217.2,599.8,-1561.0,5072.2,-14185.2,-1959.2,854.0,436.0,-1484.4,4667.0,-15481.6,-2437.0,505.2,343.6,-1372.2,3854.8,-14482.8,-2896.2,273.8,266.2,-1283.2,1606.2,-12593.4,-2622.6,-120.2,176.6,-1278.4,1228.0,-10038.2,-2208.6,-338.2,105.8,-1265.0,775.4,-6689.6,-869.4,-507.0,74.8,-1321.0,470.0,-3914.6,-589.2,-639.0,62.0,-1344.8,-275.2,-1660.2,-349.2,-663.0,83.2,-1362.4,-651.6,-188.0,85.0,-655.8,86.6,-1380.4,-330.0,643.6,573.2,DOWN
-642.6,107.8,-1333.6,-832.8,1661.4,765.0,-567.8,95.2,-1254.4,-1009.6,3169.2,1035.2,-424.0,141.0,-1263.8,-1806.4,5642.6,1662.6,-229.8,171.2,-1209.0,-2767.2,8812.4,2728.2,41.0,257.0,-1246.4,-3657.6,11932.6,2644.8,219.2,375.0,-1307.0,-4494.0,14382.0,2237.8,671.2,528.2,-1371.8,-4563.8,15364.6,3188.8,949.6,611.2,-1249.4,-3646.8,14486.8,2711.4,1216.4,689.8,-1310.6,-2826.6,13580.6,2241.4,1412.8,645.4,-1230.4,-568.8,10682.0,2717.0,1557.8,631.8,-1116.4,335.0,7186.8,2120.0,1655.6,593.6,-1051.4,12.2,4019.8,1588.6,1595.8,496.2,-1002.2,-38.0,1579.8,684.8,1541.0,435.8,-947.4,360.4,-45.0,134.0,1575.6,423.8,-978.8,243.6,-1250.6,-185.4,1581.4,453.0,-994.4,560.0,-3105.4,-237.2,1593.0,449.2,-1136.2,847.6,-5360.4,-464.4,1583.4,499.0,-1286.8,1361.0,-8557.2,-903.6,1525.8,592.8,-1422.0,2237.0,-12378.0,-1090.0,1288.2,574.4,-1474.8,3755.0,-15123.0,-1500.2,990.4,464.4,-1447.4,4598.8,-16609.8,-2042.6,583.2,393.6,-1337.8,3370.2,-16162.6,-2606.8,205.4,257.0,-1282.8,2653.2,-14144.4,-3189.4,-141.6,172.0,-1165.2,-98.0,-11292.0,-2694.2,-401.4,38.0,-1132.6,271.0,-7460.6,-1943.2,-658.6,65.4,-1226.2,-522.4,-2944.8,-925.2,-646.2,54.6,-1323.4,-955.2,-280.0,-390.0,-660.2,78.4,-1377.4,-806.4,707.2,455.4,-653.2,45.0,-1322.6,-545.2,1367.8,647.0,-598.2,60.4,-1283.0,-765.2,3099.8,1175.4,DOWN
-479.8,62.6,-1249.2,-1169.8,5790.0,1729.0,-293.0,117.6,-1199.2,-1831.2,8515.8,2719.4,-93.2,219.8,-1282.0,-2181.0,11383.4,3502.6,214.0,345.8,-1338.0,-3014.2,13240.0,4204.2,549.4,431.6,-1456.6,-3181.4,14954.6,3645.6,948.2,491.2,-1471.2,-2804.8,14977.4,3042.0,1305.8,632.6,-1344.2,-2195.2,13398.0,2277.6,1424.2,542.4,-1385.0,-2677.4,10914.8,765.6,1553.4,622.4,-1280.2,-1362.6,7370.6,849.6,1519.8,569.2,-1267.4,-808.0,3979.2,319.6,1559.0,564.0,-1202.0,285.0,688.0,19.2,1381.8,458.2,-1163.6,-154.6,-1299.8,-83.4,1490.6,515.0,-1076.0,745.2,-2473.2,15.2,1455.6,489.6,-1132.2,1023.4,-4362.8,-148.6,1503.0,498.8,-1297.6,862.6,-6702.2,-851.0,1457.2,549.0,-1462.6,421.4,-10032.6,-2105.0,1342.0,629.8,-1494.4,1205.8,-13562.6,-2024.4,1023.2,592.4,-1491.8,3767.0,-15610.6,-2605.8,673.2,456.2,-1450.8,4259.2,-15955.0,-2822.6,310.6,313.2,-1315.4,3395.8,-14434.8,-3967.6,-16.8,238.2,-1231.2,2405.8,-12271.4,-2420.2,-324.4,101.4,-1187.2,1149.0,-9179.8,-2483.6,-571.4,51.4,-1168.2,-135.4,-5066.6,-1572.2,-642.8,72.8,-1252.2,-558.2,-1747.4,-1137.0,-723.0,73.6,-1286.6,-858.6,-18.2,-23.2,-709.0,81.6,-1324.4,-880.0,825.6,249.2,-727.6,85.0,-1306.4,-708.6,1542.6,516.6,-671.0,104.4,-1318.4,-836.8,2998.2,790.0,-547.8,153.2,-1330.4,-1186.0,4494.4,1207.6,-450.6,164.4,-1323.8,-1503.4,6344.4,1770.2,DOWN
-291.2,194.6,-1286.0,-1842.2,8722.0,2576.2,-118.8,245.8,-1335.6,-2837.2,11755.0,3026.8,316.6,363.6,-1334.4,-3185.0,13440.0,4276.4,663.6,482.2,-1306.8,-2968.0,14436.2,3188.0,1014.0,611.4,-1407.6,-2795.2,13895.4,2901.8,1192.8,615.0,-1371.8,-2318.0,12629.8,2716.4,1522.2,713.4,-1383.4,-822.0,10510.0,2378.4,1535.8,621.2,-1342.0,-597.6,6341.0,2645.4,1532.6,495.6,-1245.8,133.8,2422.6,1253.0,1464.4,422.0,-1190.6,-105.0,202.6,766.0,1443.6,446.4,-1105.0,114.8,-942.4,-326.8,1479.8,448.8,-1141.4,282.0,-2775.8,-496.2,1504.8,483.0,-1233.4,145.6,-5315.2,-1149.6,1499.2,515.4,-1433.8,130.8,-8275.6,-2674.2,1390.6,618.2,-1533.8,868.2,-11651.2,-3254.4,1157.2,654.8,-1545.4,2456.4,-14000.4,-3655.4,848.6,569.8,-1478.0,3674.8,-15305.2,-4230.6,518.6,483.4,-1349.6,4337.6,-14727.6,-4124.0,-3.8,235.8,-1185.6,2860.6,-12868.0,-3447.0,-186.0,163.2,-1067.8,807.4,-9471.8,-2646.8,-443.2,103.0,-1124.4,-146.0,-4904.4,-1951.6,-490.8,127.8,-1269.8,-1230.8,-1722.2,-1489.4,-557.6,166.8,-1356.0,-1946.0,-37.4,-431.0,-585.0,180.0,-1422.8,-926.0,488.4,174.2,-594.2,202.6,-1384.8,-497.4,858.0,918.4,-554.8,187.8,-1373.0,-374.8,2029.0,904.8,-460.6,225.0,-1344.6,-685.8,3278.0,1506.8,-345.4,235.2,-1281.2,-805.2,4872.6,2344.2,-227.4,283.8,-1261.8,-1405.8,6935.2,3448.6,-4.4,299.2,-1184.0,-1789.2,9753.0,4370.0,DOWN
242.0,405.6,-1229.6,-2933.4,12336.4,4703.4,656.0,536.4,-1267.8,-3554.2,13744.2,4985.6,963.6,595.4,-1348.6,-2801.4,13766.6,4625.6,1293.4,628.4,-1357.8,-1908.6,12671.2,3740.4,1532.0,642.2,-1384.2,-1522.0,10061.6,2706.6,1640.8,714.0,-1340.6,-3157.2,7652.6,1046.6,1717.8,611.0,-1315.8,-1394.4,3668.8,1455.4,1729.8,539.2,-1336.6,319.0,830.4,827.6,1471.0,458.4,-1139.0,575.0,-1025.2,-851.4,1513.4,535.0,-1103.2,1468.2,-2706.8,-566.2,1503.2,502.6,-1251.8,1536.4,-4942.0,-992.8,1461.4,541.2,-1392.6,773.8,-7662.6,-2671.2,1416.8,626.4,-1463.2,650.8,-10534.2,-2701.0,1143.8,622.2,-1472.8,1980.4,-12944.6,-3578.4,889.0,566.0,-1460.0,2833.8,-14193.0,-4488.6,550.8,452.8,-1353.2,2555.6,-13922.8,-5112.0,350.6,397.6,-1228.6,1646.6,-12564.2,-3668.8,-71.4,242.8,-1187.0,1870.2,-9710.2,-3392.0,-360.2,190.4,-1215.6,671.8,-6206.8,-1857.2,-428.2,185.4,-1274.8,-63.6,-2894.6,-1237.2,-518.0,196.8,-1326.6,-491.6,-1231.6,-408.6,-571.4,272.8,-1448.4,-108.0,-498.0,-36.8,-602.4,205.8,-1396.0,256.0,-84.8,72.0,-608.0,239.2,-1401.4,-30.8,910.8,233.6,-547.8,184.6,-1347.6,-402.6,2055.0,514.2,-449.0,210.8,-1314.8,-742.4,3674.4,1021.0,-396.6,207.4,-1289.4,-1148.0,5791.6,1737.8,-230.2,250.8,-1287.8,-2162.6,8504.0,2242.4,-72.6,306.6,-1237.2,-3666.8,11558.0,2953.4,436.6,414.0,-1170.0,-3836.4,13744.2,4150.2,DOWN
708.8,595.8,-1296.6,-3559.2,14627.6,3499.6,1196.6,694.4,-1284.4,-3180.8,13283.4,4065.4,1220.0,714.0,-1323.0,-2417.6,11272.4,3432.8,1546.0,717.8,-1479.4,-878.8,8118.2,3454.4,1519.0,655.8,-1312.2,-401.0,5028.2,1878.8,1587.0,564.6,-1229.4,-117.4,2561.0,1120.0,1490.2,466.8,-1167.8,765.4,446.8,1291.6,1456.4,423.0,-1086.0,834.8,-574.6,43.4,1469.6,452.8,-1050.0,303.8,-1458.0,-423.4,1503.8,492.6,-1181.2,278.4,-2901.0,-799.8,1548.4,537.4,-1376.0,129.2,-5688.6,-1726.6,1499.0,580.8,-1507.8,-409.0,-9131.8,-3380.6,1391.4,716.2,-1459.6,342.2,-12693.0,-3819.2,1039.8,708.0,-1380.6,3880.0,-14785.4,-4510.6,691.0,504.0,-1273.8,5395.0,-15262.0,-4444.8,343.4,392.4,-1182.8,4953.8,-13569.0,-4084.2,-16.0,214.0,-1055.6,3166.8,-10558.0,-2726.8,-249.8,146.0,-1160.6,342.0,-6672.0,-2309.8,-448.6,130.4,-1220.4,-613.0,-3559.8,-1692.4,-511.8,164.0,-1342.2,-1317.6,-1912.4,-1338.0,-571.6,166.0,-1347.8,-632.8,-531.6,-168.2,-580.2,171.8,-1444.2,-7.8,347.6,280.2,-553.2,156.8,-1401.8,-217.2,1322.8,360.6,-486.8,166.2,-1412.4,-425.4,2178.2,779.0,-401.4,162.0,-1360.6,-987.4,3627.0,1232.2,-301.0,197.0,-1304.2,-1234.0,5711.8,2044.0,-167.4,206.4,-1324.0,-1759.0,8536.2,2451.6,141.0,263.2,-1315.4,-2577.0,11348.8,3390.0,367.2,348.8,-1316.6,-1211.8,13254.4,2583.6,698.4,434.8,-1401.2,-2579.6,13294.0,3739.4,DOWN
955.6,442.2,-1288.0,-1854.8,13521.6,2326.0,1368.8,554.8,-1320.4,-3663.4,11842.0,2364.6,1493.2,585.0,-1287.8,-1419.6,9850.6,2171.4,1536.2,513.4,-1245.4,-598.8,7518.2,788.2,1611.0,438.0,-1189.2,-484.6,5139.6,778.2,1622.2,435.2,-1105.8,-157.6,2177.2,574.2,1607.2,367.0,-1059.4,-333.6,144.0,196.2,1518.6,330.6,-1015.0,104.6,-915.8,-118.2,1569.4,390.0,-1022.2,794.6,-2303.8,-48.8,1619.4,390.2,-1144.0,945.4,-4226.8,-220.2,1626.8,362.2,-1280.4,211.0,-7783.6,-1058.2,1596.4,462.0,-1385.0,-248.4,-11242.6,-1877.8,1350.8,529.2,-1470.8,1119.2,-14179.6,-2821.0,1127.6,523.6,-1435.0,2834.4,-16333.2,-2512.4,682.0,416.6,-1407.0,3955.4,-16447.2,-3003.8,293.0,287.8,-1301.4,3920.0,-15564.8,-2848.8,-63.0,166.6,-1150.0,2221.2,-13072.0,-1680.8,-395.8,64.6,-1114.2,1246.4,-9476.8,-1937.6,-622.4,42.2,-1125.4,-12.6,-5408.2,-1194.4,-692.0,-10.6,-1190.0,-297.8,-2198.2,-498.2,-720.4,27.0,-1265.0,-931.0,254.4,-272.6,-762.0,37.0,-1344.4,-714.6,1372.2,169.6,-688.4,70.6,-1349.6,-798.0,2086.6,500.2,-654.2,62.0,-1380.8,-1003.8,3177.4,494.8,-565.2,102.0,-1313.4,-1776.0,4593.6,1077.2,-440.2,108.6,-1280.4,-2299.8,6631.8,1657.6,-252.2,165.2,-1219.6,-2422.8,9084.6,2654.4,30.0,252.6,-1306.4,-3078.0,11886.6,3500.4,345.0,402.2,-1216.8,-2495.6,13660.6,4442.6,708.8,501.8,-1305.0,-2074.0,14592.4,3439.0,DOWN
140.8,71.6,-1692.8,228.2,-534.6,2092.4,151.0,-11.8,-1702.2,3.8,-716.8,3766.6,127.0,-10.8,-1647.4,-521.8,-728.8,5776.0,116.2,60.0,-1609.2,-809.8,-381.0,7659.2,131.6,181.2,-1567.0,-970.6,46.4,8957.2,162.6,252.6,-1548.2,-643.0,340.6,9736.0,213.6,366.0,-1516.2,-1612.8,677.8,9607.8,302.4,543.0,-1553.0,-596.6,716.4,8526.2,314.2,540.8,-1596.0,-1712.0,972.6,6449.8,385.6,577.2,-1610.8,-41.4,433.2,4177.8,316.4,594.2,-1590.4,-803.6,71.4,1570.8,323.6,541.0,-1574.6,497.6,-187.8,-376.2,351.4,590.2,-1594.2,248.4,-421.8,-2711.2,384.4,614.4,-1588.4,531.2,-690.6,-5671.4,350.6,581.8,-1604.6,1468.8,-928.4,-8286.8,306.8,458.6,-1597.8,802.6,-772.2,-10363.2,271.4,337.2,-1605.8,191.0,-561.8,-11487.0,178.8,232.2,-1618.0,-605.0,-437.0,-11524.2,102.4,149.4,-1650.2,-1921.4,187.4,-10937.2,70.8,117.8,-1643.8,-710.0,642.4,-9773.8,65.0,69.6,-1655.6,-1082.4,780.2,-7783.8,21.2,71.4,-1602.8,-1933.4,631.4,-5471.0,16.4,171.6,-1618.0,-577.2,390.8,-3365.2,6.4,194.4,-1604.2,-498.0,204.2,-1678.6,-1.6,251.4,-1589.0,313.6,50.8,-629.2,-10.2,296.2,-1592.2,290.6,72.4,-27.0,-20.4,313.4,-1584.6,-479.2,183.0,263.6,-28.0,325.8,-1595.8,94.8,218.0,418.0,-28.4,296.2,-1598.6,-122.2,282.0,697.4,-2.0,286.0,-1618.6,459.6,138.2,1316.4,RIGHT
16.4,222.4,-1606.4,297.4,191.6,2177.8,36.4,154.4,-1620.0,779.0,192.4,3717.0,78.0,112.8,-1621.2,600.0,210.0,5576.6,99.6,130.6,-1633.4,925.2,251.8,7187.6,94.0,46.6,-1612.4,1358.0,238.2,9065.4,155.8,24.2,-1599.6,448.4,394.4,10713.2,209.8,138.2,-1587.8,-656.4,639.4,11855.0,271.0,214.2,-1576.2,-615.6,1194.0,11712.2,316.2,414.6,-1648.0,-887.6,1647.2,10592.2,330.2,342.8,-1606.6,733.6,2152.8,9273.0,475.6,455.2,-1612.8,-3631.2,1998.4,7440.6,536.8,513.0,-1592.4,-1923.8,974.0,5037.2,521.2,579.2,-1578.4,-2054.2,138.8,1990.0,499.6,594.0,-1583.6,-2297.2,-421.2,-1022.4,442.2,588.6,-1574.4,-59.8,-586.2,-3611.2,460.0,572.8,-1574.6,1323.6,-687.6,-6140.8,467.8,555.4,-1599.6,65.0,-688.4,-8774.0,393.6,466.0,-1611.8,2082.4,-794.4,-10537.0,346.4,364.8,-1601.4,670.0,-505.2,-11887.8,292.2,250.2,-1590.2,396.4,-177.0,-12273.8,241.8,181.8,-1589.6,-1798.6,497.4,-12074.6,211.0,201.0,-1617.2,-740.8,717.2,-11181.2,155.0,149.6,-1654.0,183.0,403.2,-9610.2,80.2,25.4,-1613.4,720.8,141.8,-7633.8,78.8,38.8,-1633.4,1950.6,-369.6,-4839.2,62.2,41.4,-1590.6,-1681.6,-124.2,-2459.6,41.2,174.2,-1607.6,58.2,37.8,-827.6,25.2,239.0,-1616.0,-1117.4,305.0,151.6,34.2,232.0,-1600.8,-45.6,158.2,974.6,22.0,236.4,-1609.2,-450.4,106.0,1650.2,RIGHT
27.4,199.8,-1612.6,276.0,-54.2,2579.4,59.2,136.8,-1613.0,579.0,-290.4,4020.8,112.4,91.4,-1615.0,633.6,-569.8,6126.2,131.2,69.4,-1617.4,598.4,-807.8,8191.0,118.6,57.8,-1610.2,2444.0,-1000.6,10380.4,159.0,58.0,-1613.4,2004.6,-621.2,11831.0,188.8,146.0,-1620.6,-715.0,-118.2,12459.0,168.2,196.6,-1596.0,674.0,463.2,12320.4,269.8,357.0,-1599.2,-3993.0,762.0,11215.2,231.8,453.4,-1577.2,-1220.4,697.2,9619.2,312.6,520.4,-1586.2,-1090.8,462.8,7878.8,261.6,508.4,-1579.0,-3153.4,603.8,5997.0,266.2,610.0,-1585.2,-1910.4,344.8,3990.0,220.0,560.2,-1561.2,66.6,437.2,2173.2,262.2,671.4,-1600.2,802.0,489.6,-531.6,247.2,614.0,-1618.8,1272.0,454.6,-3101.8,261.6,659.2,-1643.0,1925.8,317.8,-5779.6,359.6,620.2,-1647.6,2393.6,-67.8,-8992.6,274.8,440.4,-1593.0,1811.4,-706.4,-11146.2,303.8,298.8,-1565.8,1053.8,-999.8,-12355.0,265.4,163.0,-1569.2,-75.0,-1198.2,-12589.4,202.2,95.6,-1585.0,-1105.6,-1290.0,-12133.0,112.6,7.4,-1582.6,-1059.0,-957.4,-10690.2,112.8,18.4,-1574.2,-1347.0,-428.4,-8874.8,106.2,25.6,-1593.6,-2433.8,-131.0,-6852.8,105.0,34.2,-1627.2,-1380.0,123.4,-4816.8,77.6,71.8,-1609.6,-1063.0,291.2,-2647.4,74.8,91.6,-1639.4,-931.8,494.2,-693.4,62.8,76.6,-1611.0,-562.8,516.0,1049.4,59.6,102.0,-1625.4,-224.8,502.0,2856.4,RIGHT
80.6,139.8,-1615.2,-483.2,314.2,4409.8,99.6,176.6,-1643.4,-806.0,-5.4,5806.8,114.0,186.6,-1667.6,-741.4,-703.8,7444.8,152.0,104.4,-1662.2,-472.0,-1082.0,9297.6,173.6,238.8,-1629.2,-1202.2,-1080.8,10253.6,146.2,293.8,-1577.8,-1095.2,-1225.0,10796.0,215.6,423.6,-1556.8,-1811.0,-1436.4,9533.8,294.6,469.6,-1528.6,-2604.4,-1779.2,8662.4,153.8,754.4,-1552.4,111.2,-2083.4,8535.0,-26.4,569.2,-1492.6,-3030.0,-738.8,6326.0,30.4,694.0,-1520.8,-432.6,-135.0,6167.8,62.4,720.2,-1620.6,-328.6,253.8,3279.6,-9.2,642.8,-1582.2,-692.8,110.8,1076.2,-12.0,674.2,-1601.8,-820.4,-289.8,-248.6,13.8,719.2,-1595.2,-212.0,-474.2,-1860.4,23.6,730.6,-1559.8,-782.8,-246.6,-3857.6,1.8,730.4,-1537.2,-910.0,-7.2,-5978.2,-9.2,783.0,-1530.2,-831.6,436.0,-8464.0,-24.0,662.0,-1505.6,-1781.4,1118.2,-9908.6,-28.4,579.8,-1487.8,-2202.0,1384.6,-10861.2,70.8,470.4,-1548.2,-1341.2,1466.8,-9919.6,-43.4,376.0,-1563.0,-2959.0,1545.6,-9978.0,-90.8,334.2,-1596.8,-1192.2,1803.6,-9105.4,-5.0,323.6,-1594.0,-648.8,1671.6,-5884.8,-26.2,309.2,-1606.6,-624.2,1323.2,-3442.4,-43.2,362.8,-1630.6,-544.0,712.6,-1975.8,-109.2,382.6,-1590.2,-1646.4,384.0,-984.4,-93.0,425.8,-1579.6,-88.0,196.0,302.6,-102.8,428.6,-1560.8,-150.4,273.0,996.0,-94.6,417.2,-1553.0,286.0,272.6,1943.8,RIGHT
-66.6,425.4,-1579.2,677.0,155.6,3122.8,-14.0,364.0,-1591.0,921.4,19.8,4624.0,66.0,351.4,-1623.2,1535.0,-178.2,6352.0,131.6,324.0,-1609.0,975.6,-304.8,7493.0,199.2,410.6,-1647.2,1505.4,-953.4,9521.2,165.2,411.6,-1616.6,-772.8,-1570.0,10844.8,204.8,651.2,-1627.2,811.4,-2439.0,10737.6,66.6,475.2,-1577.0,-43.6,-2030.8,10072.2,146.4,601.6,-1534.2,1354.8,-1842.6,9665.2,87.8,633.2,-1569.0,-623.6,-1089.6,7693.4,59.2,674.0,-1581.8,-837.8,-674.4,5757.0,42.2,733.2,-1563.0,-1120.2,-646.6,3971.0,1.0,726.8,-1556.8,-759.6,-454.4,2464.6,-13.0,762.8,-1544.4,-186.0,-229.2,724.0,-20.2,750.4,-1558.0,-872.0,-141.6,-837.4,-3.6,822.8,-1561.4,-544.4,-94.4,-2734.2,-27.2,866.8,-1551.0,-1088.6,112.6,-5330.2,-49.6,840.6,-1549.4,-1307.8,501.6,-8044.0,-30.4,865.4,-1545.8,-1560.2,867.6,-10517.0,-34.6,744.4,-1539.8,-1481.2,1107.2,-11903.0,-16.6,676.0,-1476.0,-1895.8,1997.6,-12065.6,-9.2,477.0,-1488.0,-2478.4,2821.6,-11720.4,33.6,460.2,-1511.8,-2434.8,2986.4,-9974.8,119.0,416.4,-1571.6,-1365.4,2565.6,-7800.2,10.8,463.4,-1651.4,-1947.4,2305.2,-5721.2,-27.2,326.8,-1624.4,-1587.6,1725.0,-3533.0,-5.8,407.2,-1610.0,482.8,1064.0,-1758.0,-41.4,449.0,-1587.4,-60.4,711.4,-625.8,-102.2,451.8,-1562.0,-189.6,244.2,236.2,-102.4,442.0,-1556.6,18.8,-41.4,966.6,RIGHT
-71.8,434.0,-1577.0,661.8,-352.8,1841.8,-56.2,364.4,-1582.6,1019.8,-552.0,3269.4,26.8,346.2,-1597.0,1638.4,-850.4,5741.4,73.0,242.0,-1604.4,2039.8,-905.4,7890.6,160.8,324.6,-1600.2,1803.2,-861.2,9386.0,167.2,327.2,-1618.4,55.6,-667.0,9985.2,206.8,406.8,-1553.2,-410.6,-935.0,11435.2,271.8,588.2,-1525.2,921.0,-1213.6,11972.6,136.8,660.0,-1539.0,378.4,-676.6,11462.6,214.4,711.0,-1560.6,165.6,-460.8,9989.6,251.0,696.2,-1571.2,-945.2,-734.8,8175.2,283.2,743.4,-1566.2,-1729.6,-1141.0,5851.4,188.4,740.4,-1555.6,-2267.4,-1159.6,3788.6,83.0,829.8,-1556.0,-1734.4,-1190.0,2372.6,14.6,901.0,-1543.6,253.0,-633.0,646.0,-11.2,886.8,-1537.2,821.6,-69.4,-1803.0,15.2,854.0,-1539.8,-33.2,274.2,-4784.6,43.2,833.0,-1566.2,-319.2,335.2,-7197.2,77.6,814.8,-1539.8,-457.8,438.2,-9413.6,86.4,718.6,-1500.8,323.2,1138.8,-11275.2,33.8,630.4,-1454.8,2.0,2126.8,-13098.4,92.8,593.6,-1488.4,380.2,1931.2,-11846.6,189.6,528.0,-1488.8,900.8,1681.8,-10675.6,48.8,243.4,-1564.6,-1057.0,1370.4,-9055.0,45.8,352.6,-1681.8,633.2,1106.0,-7550.4,34.4,313.6,-1714.8,36.4,717.8,-5672.0,82.4,276.6,-1650.2,728.2,188.8,-4206.2,36.8,151.8,-1610.8,223.6,124.2,-3025.8,-0.4,100.4,-1589.8,-1264.2,339.4,-1252.6,22.2,196.6,-1624.8,-2398.0,581.8,590.8,RIGHT
39.8,234.6,-1586.6,-203.0,232.0,2050.6,60.8,226.0,-1594.0,-274.4,230.4,3989.6,129.0,197.0,-1597.0,-156.0,164.8,6462.8,189.2,167.2,-1602.2,-71.2,230.4,8750.2,261.4,286.6,-1608.2,565.8,-154.4,10985.2,262.2,340.0,-1600.8,-330.0,-202.8,12472.2,317.2,505.0,-1565.0,-878.4,-762.0,13842.4,400.6,792.2,-1664.6,2765.4,-1298.4,13076.4,134.0,662.6,-1682.8,473.2,-878.2,10216.0,127.0,622.2,-1655.6,2000.0,-691.8,7822.4,200.4,741.6,-1608.8,478.8,-1100.8,6523.0,70.6,555.2,-1573.4,-2285.4,-613.2,4178.0,49.2,524.2,-1553.2,-980.4,-245.6,3437.6,152.8,664.0,-1570.8,-1524.6,218.6,1561.6,108.0,703.2,-1592.8,-1844.0,-13.4,-38.4,94.4,724.2,-1599.6,52.4,372.6,-2839.4,114.8,654.0,-1595.2,3.0,299.6,-6116.6,106.4,627.6,-1597.4,-955.0,412.0,-8952.6,116.6,658.4,-1589.4,-1241.0,902.6,-11356.0,213.0,642.2,-1594.6,649.8,951.0,-12011.4,226.4,593.6,-1562.0,923.4,1037.0,-12692.0,161.6,399.4,-1461.4,-3237.8,2050.2,-13984.0,172.6,251.4,-1523.8,-1938.4,1939.8,-11826.4,152.0,358.6,-1636.6,-240.8,2006.4,-8802.6,136.0,195.2,-1590.6,2177.8,1210.4,-6156.6,109.6,185.4,-1645.8,422.8,1216.6,-3580.4,118.0,196.8,-1659.2,-911.2,738.4,-2254.2,139.4,304.6,-1648.2,-1842.2,167.0,-566.6,117.4,316.0,-1600.8,976.4,-562.8,146.8,83.0,346.6,-1596.2,-234.0,-147.2,1331.0,RIGHT
47.4,300.8,-1586.6,-600.4,-93.0,2392.2,62.8,242.4,-1600.2,-886.0,-276.4,3696.6,152.4,275.6,-1609.2,-757.4,-688.6,5266.4,154.6,322.0,-1618.0,-693.4,-1040.2,7131.4,266.4,377.2,-1616.0,-338.8,-1544.4,8655.6,237.0,422.6,-1618.8,378.4,-1994.0,9885.8,281.4,473.2,-1599.0,447.0,-2278.0,11189.4,317.4,491.0,-1531.2,1719.2,-2410.8,12596.0,326.2,557.4,-1492.8,1832.0,-1670.8,9756.0,188.0,451.4,-1424.8,883.0,-16.0,8426.2,214.8,476.4,-1479.8,-1417.0,1173.0,6472.0,41.2,591.4,-1584.4,-767.8,858.0,5598.6,158.2,624.6,-1672.4,1345.4,45.8,5122.8,161.0,519.2,-1603.4,-552.0,-186.6,2545.0,34.4,581.4,-1598.0,-2255.4,-308.2,50.2,109.8,700.6,-1615.4,-901.4,-291.2,-786.4,157.6,699.4,-1618.8,294.0,-66.4,-2953.2,154.8,642.4,-1616.0,652.4,-370.8,-4779.2,167.8,688.4,-1662.2,414.8,-497.2,-6877.8,118.0,646.8,-1606.2,1788.0,-654.2,-9120.4,155.4,521.2,-1616.8,1695.8,-481.6,-10288.6,247.6,360.4,-1620.6,2793.8,-1115.8,-11293.4,100.0,141.2,-1523.6,2448.2,-1383.4,-12187.4,29.0,110.4,-1517.0,-1555.8,-944.4,-10596.0,63.2,31.2,-1548.0,-1713.8,-682.0,-9269.2,46.6,1.4,-1576.6,-2085.8,-383.0,-7238.0,69.8,-85.2,-1575.4,-2269.2,31.0,-5604.2,88.4,-52.0,-1642.6,-2787.6,378.8,-4000.2,119.6,78.8,-1720.2,-1853.0,211.8,-2199.4,74.2,82.0,-1689.2,-894.2,116.8,-804.4,RIGHT
39.8,68.2,-1674.4,-251.6,401.8,456.4,18.0,81.0,-1667.8,323.6,517.8,1716.0,42.8,56.0,-1681.0,543.2,555.8,3038.6,85.0,-1.0,-1678.2,906.2,591.8,4702.4,131.2,-29.6,-1695.6,881.6,771.8,6696.4,269.4,-54.2,-1651.0,689.4,879.8,8868.2,271.0,39.0,-1642.4,-605.6,890.4,10671.2,337.4,214.0,-1600.4,-1694.0,734.4,12797.0,288.4,379.4,-1630.0,-1609.8,292.6,14772.8,390.2,438.4,-1569.6,-1901.4,257.6,13998.6,351.8,536.0,-1534.8,-2993.4,283.0,11083.0,266.6,672.6,-1541.2,-2790.2,-55.4,9095.8,125.4,701.2,-1533.2,-1730.4,424.6,6322.0,130.2,732.0,-1570.0,-390.0,605.8,3722.4,94.4,682.4,-1577.6,-740.0,846.4,1398.0,188.2,621.6,-1503.4,-2563.4,737.2,-323.8,235.2,736.6,-1585.2,-2100.0,463.6,-2499.0,210.0,800.0,-1593.8,90.2,155.6,-4187.4,186.2,742.6,-1562.4,1237.4,124.4,-6337.2,158.8,710.4,-1567.0,1362.4,64.6,-8171.4,141.2,640.0,-1565.0,1424.0,-210.0,-9634.6,99.2,499.6,-1565.6,1176.6,-197.6,-11401.6,137.2,440.4,-1615.8,-967.4,356.4,-12140.2,181.4,474.0,-1628.8,-1673.0,336.2,-11052.8,238.4,342.8,-1547.6,-2109.0,413.8,-10337.0,182.6,276.6,-1541.0,-155.2,650.4,-9589.6,83.4,340.0,-1588.2,1049.8,363.6,-7054.2,79.4,138.6,-1549.4,1184.8,44.8,-5788.2,64.6,-8.6,-1604.6,-493.8,264.2,-4802.4,14.0,105.4,-1663.8,-2475.6,812.0,-3409.4,RIGHT
23.0,199.8,-1708.8,-2245.2,733.6,-2051.4,50.6,266.8,-1709.2,-1082.0,323.0,-865.0,30.2,251.4,-1672.6,-113.8,-42.6,218.4,2.8,228.4,-1650.6,269.4,-136.8,1344.4,13.4,227.8,-1609.2,458.4,-136.0,2340.2,-19.4,196.8,-1619.8,740.2,-23.4,3597.8,24.4,145.6,-1640.0,244.2,159.4,5389.4,77.2,120.0,-1648.8,-13.8,217.6,7633.6,164.2,231.2,-1664.2,-169.4,205.4,10030.2,92.6,227.8,-1609.8,-1015.2,498.6,11740.0,242.4,354.4,-1586.8,-1795.8,387.6,13159.6,320.8,473.6,-1572.4,-624.4,-705.4,12938.0,358.2,510.0,-1530.0,-589.4,-844.8,12487.0,410.8,507.8,-1512.6,-961.0,-499.4,10420.0,385.8,559.6,-1542.6,-2876.8,-512.0,8390.8,380.4,700.6,-1522.2,-2996.8,-134.8,7265.8,281.0,770.2,-1494.4,-1557.8,-227.4,5044.8,209.8,815.4,-1463.0,-1424.4,-128.2,2167.0,167.4,848.2,-1496.0,-2271.8,373.8,-152.0,155.8,962.0,-1536.4,-2198.0,124.2,-1563.2,137.6,1007.6,-1527.6,1462.2,-351.8,-3305.8,69.4,928.2,-1504.4,1191.2,177.6,-6059.2,151.0,903.0,-1502.4,542.6,137.0,-7811.0,184.0,849.4,-1504.2,2009.6,-10.2,-9606.8,165.2,632.8,-1507.4,2212.6,-126.6,-10706.8,170.6,488.6,-1513.8,2068.0,-270.2,-10335.4,173.4,333.6,-1505.6,-46.6,198.2,-10184.2,171.6,262.2,-1504.4,-1901.4,664.0,-8133.6,234.6,224.2,-1524.0,-1681.2,834.0,-6010.6,204.6,168.8,-1573.2,-1229.4,1197.0,-4085.4,RIGHT
131.4,317.0,-1607.2,-231.6,106.0,-14.0,127.2,347.0,-1607.8,-500.2,46.8,-228.8,140.8,397.4,-1618.8,-573.6,-113.8,-761.4,142.6,412.0,-1624.4,-2.0,-252.2,-1628.4,139.0,356.0,-1598.8,531.8,-305.6,-2265.0,162.4,476.2,-1597.6,-1979.2,-367.6,-3876.8,163.0,716.6,-1609.8,-1046.6,101.6,-6995.4,76.8,480.8,-1528.4,6823.8,1376.4,-9267.6,108.0,117.6,-1493.8,3701.2,1912.8,-10498.0,191.6,59.8,-1569.8,-1895.0,1600.2,-10309.6,200.2,88.4,-1552.4,-4513.0,1521.8,-9219.4,260.0,157.0,-1667.0,-5442.0,1221.8,-7431.6,308.4,288.4,-1796.8,-5782.8,316.0,-5539.2,239.6,152.6,-1642.0,-909.8,256.4,-2694.6,243.8,193.6,-1603.6,-3918.0,-814.8,414.8,206.4,371.0,-1621.6,-1456.2,-811.4,2913.0,204.6,363.4,-1588.4,731.0,-719.8,4752.6,226.2,326.2,-1627.8,227.4,-999.8,6378.6,239.0,307.0,-1655.0,1082.6,-1487.0,8182.0,236.6,310.6,-1633.4,1923.4,-1704.0,9526.8,261.6,333.0,-1628.0,2801.6,-1544.8,10192.8,228.6,295.2,-1578.4,407.8,-1467.8,9886.6,176.4,317.8,-1577.6,449.4,-1041.6,9391.4,225.6,440.8,-1588.2,649.6,-864.6,8188.6,196.6,363.0,-1582.8,1728.8,-157.2,6651.2,208.2,332.0,-1592.2,-1402.2,83.0,5024.6,225.8,455.4,-1624.2,-2248.4,89.4,3384.8,227.4,426.6,-1611.6,62.4,398.4,1671.0,232.6,340.0,-1604.4,869.6,499.4,708.6,222.6,292.6,-1622.0,-362.4,244.0,38.2,LEFT
229.4,308.4,-1624.8,-467.4,59.4,-623.8,216.4,347.4,-1617.2,-487.6,-65.6,-1434.4,240.8,433.0,-1594.6,-1180.8,-142.6,-2837.6,226.0,502.4,-1588.8,-367.6,87.2,-4684.2,237.6,507.8,-1578.4,45.8,665.2,-6964.4,222.6,461.2,-1572.2,586.8,1438.2,-8859.6,226.6,333.8,-1572.0,822.4,2123.0,-9979.0,261.6,245.2,-1603.4,-833.8,2612.8,-10318.0,317.4,257.2,-1634.0,-2441.6,2945.6,-10085.8,339.4,249.6,-1657.2,-1224.0,2872.8,-8895.0,375.0,229.8,-1645.6,-25.8,2065.0,-6940.4,382.4,256.6,-1639.8,-1137.4,749.8,-4688.4,349.0,321.4,-1636.8,-785.8,-147.6,-2358.4,327.4,332.0,-1634.2,-126.6,-684.0,-368.6,285.2,341.0,-1617.8,379.8,-1071.2,1499.4,265.0,299.8,-1600.6,-473.0,-1340.6,2986.6,219.0,341.8,-1623.2,295.0,-1255.0,4371.4,235.0,274.6,-1595.0,678.0,-1061.4,5664.2,254.2,264.4,-1637.2,653.6,-1193.2,7085.0,256.6,225.0,-1667.8,2247.6,-1297.2,8630.2,258.2,199.8,-1639.6,1611.6,-1444.8,9725.6,237.0,271.8,-1603.2,478.4,-1664.6,9871.4,216.4,332.4,-1624.2,428.2,-1357.4,9421.8,178.0,370.0,-1584.4,-1460.0,-1328.2,7884.2,229.4,440.6,-1588.6,309.4,-642.4,6516.2,227.8,501.8,-1590.0,-1482.8,-576.4,4516.6,187.0,392.2,-1567.8,263.2,1.2,2866.2,227.0,385.8,-1595.4,-562.0,189.8,1977.8,218.4,382.2,-1604.4,-749.6,230.4,951.8,192.2,320.8,-1603.6,473.8,317.2,383.6,LEFT
204.6,293.2,-1620.2,-173.6,86.6,57.0,203.0,292.2,-1636.0,369.0,-99.2,-175.6,201.0,239.4,-1614.4,108.4,-261.2,-418.4,165.4,258.2,-1615.6,770.8,-63.2,-407.2,180.8,200.6,-1603.0,-146.6,-11.0,-491.8,182.8,313.8,-1610.0,-1041.8,-25.0,-900.6,212.8,425.4,-1562.0,-1984.0,140.4,-2141.0,234.6,637.8,-1536.8,-3177.8,534.4,-4814.2,268.6,765.8,-1503.8,-1113.2,1652.2,-8457.0,231.8,579.2,-1506.6,4113.2,2571.0,-11233.0,259.6,265.0,-1504.6,514.8,2602.2,-12485.6,303.4,244.2,-1645.0,-1606.4,2772.0,-12537.2,381.4,139.6,-1705.4,208.6,2694.4,-11226.8,434.2,4.2,-1676.4,-589.2,1410.4,-8082.8,411.8,-30.0,-1673.0,-2309.2,-210.0,-3660.4,397.6,67.2,-1705.0,-416.6,-1345.6,1637.0,334.0,69.0,-1648.2,1147.8,-1937.4,6198.4,310.2,50.6,-1626.8,1248.2,-2019.2,9811.2,288.0,107.4,-1662.4,1035.0,-2301.0,12065.0,246.0,233.0,-1629.8,1883.2,-2028.0,13132.0,205.2,304.6,-1546.8,-276.0,-1688.0,12144.0,224.6,467.4,-1563.0,829.8,-846.2,10650.8,234.0,468.6,-1512.8,-1375.8,-409.0,7823.2,260.2,550.8,-1567.8,-394.0,108.4,5528.6,238.2,549.2,-1514.0,-3653.0,199.6,2753.6,239.8,557.8,-1567.2,837.8,871.2,521.8,290.8,544.0,-1578.2,78.8,938.8,-1664.2,309.8,651.0,-1582.6,-3351.8,596.8,-4992.0,314.6,769.6,-1533.0,-1377.4,1326.8,-8789.6,251.0,584.6,-1557.6,4907.0,2070.6,-11528.4,LEFT
304.0,245.8,-1581.0,2257.4,2209.8,-12931.6,314.0,155.2,-1610.2,-2846.6,2092.0,-12733.0,326.2,171.6,-1617.4,-2847.2,2359.8,-11626.4,386.0,180.4,-1653.6,-1669.6,2069.8,-9643.4,389.4,201.6,-1656.8,-1856.8,1051.0,-6827.6,362.6,267.4,-1669.8,-734.4,-3.4,-3514.2,310.8,244.2,-1644.0,1512.0,-514.4,-411.8,251.4,222.8,-1594.2,-609.2,-863.4,1796.0,228.8,337.0,-1617.2,-303.8,-962.8,3384.8,214.4,244.0,-1622.8,3443.6,-816.4,5318.6,234.2,124.8,-1624.8,1375.4,-1266.8,7160.8,220.4,138.8,-1653.0,640.0,-1459.6,8753.8,209.6,185.2,-1646.0,1563.8,-1488.8,9714.8,183.4,168.2,-1605.0,1186.0,-986.4,10110.8,167.4,176.4,-1581.0,-604.6,-841.6,9456.4,219.6,315.6,-1627.8,1502.8,-477.8,8779.6,188.6,294.0,-1559.2,170.6,-481.4,6750.4,206.0,276.8,-1609.0,2215.4,165.4,5223.6,181.4,278.6,-1550.0,-4877.0,-307.0,3038.0,200.0,366.6,-1622.2,244.0,445.4,1245.2,202.2,304.2,-1599.0,301.2,415.4,71.4,237.4,353.4,-1622.8,-1626.6,26.8,-1838.6,224.4,438.0,-1625.6,55.6,59.4,-3771.6,256.6,461.8,-1584.6,-1079.0,125.0,-6349.6,202.0,473.0,-1563.8,-425.0,839.4,-8788.4,191.2,342.6,-1560.8,97.2,1600.6,-10513.6,210.2,251.8,-1563.4,-884.0,2141.6,-11116.8,250.8,100.8,-1568.4,-1820.4,2264.6,-10786.6,312.4,151.8,-1633.2,-2591.0,2070.0,-9457.6,349.8,193.6,-1647.8,-2865.2,1443.8,-7683.6,LEFT
347.0,245.8,-1669.4,-2050.2,674.6,-5641.4,272.0,239.8,-1644.6,-472.0,11.2,-3299.2,247.2,265.2,-1600.2,773.8,-342.2,-800.2,208.4,279.4,-1602.8,604.6,-480.4,942.4,216.6,195.0,-1603.8,548.0,-588.2,2858.6,249.6,205.2,-1639.6,1501.2,-1055.8,5352.6,289.6,77.2,-1635.4,1698.8,-1491.4,7934.0,249.0,60.6,-1663.0,1961.2,-1769.2,10213.6,232.6,171.2,-1662.2,1452.8,-1831.6,11018.0,123.6,113.8,-1588.0,4162.6,-626.4,11142.6,186.8,214.0,-1588.0,1481.0,16.0,10097.8,125.0,249.0,-1557.0,-700.2,291.0,7801.2,174.0,230.4,-1571.2,2469.2,878.4,6744.0,247.2,307.2,-1551.6,-5524.4,396.8,4513.2,168.4,364.4,-1580.4,-3356.0,484.8,2640.4,229.8,358.8,-1599.6,511.0,708.2,1726.6,231.2,319.6,-1607.2,-1847.2,295.4,76.0,238.8,412.2,-1639.6,-91.4,140.6,-1775.4,229.2,428.8,-1602.2,-401.0,28.4,-3866.2,246.6,463.0,-1600.2,-513.0,189.8,-6324.0,241.6,478.2,-1601.2,-168.8,657.8,-8870.6,227.6,381.6,-1567.4,1197.6,1453.8,-10746.4,252.2,242.4,-1563.0,768.4,2195.8,-11684.4,274.0,46.4,-1552.6,706.4,2642.0,-11369.6,373.0,28.2,-1652.0,-1234.4,2640.4,-10136.8,409.0,60.2,-1690.8,-1111.4,1868.6,-7886.6,403.4,86.8,-1689.0,-3305.0,340.4,-5724.6,347.8,250.4,-1710.4,-247.0,-530.8,-3084.2,296.6,195.8,-1599.4,491.8,-827.8,-1456.4,262.8,205.0,-1624.6,-503.6,-876.2,3.6,LEFT
260.2,89.2,-1677.6,1851.2,-560.6,2283.0,276.0,25.2,-1661.8,-78.2,-1213.4,4908.2,294.8,55.0,-1648.6,642.8,-1579.8,7504.6,255.8,46.8,-1628.2,947.0,-1623.0,9542.6,236.6,132.0,-1662.4,1186.4,-1542.6,10400.8,168.0,92.4,-1648.6,2036.8,-862.6,10663.8,177.4,180.8,-1626.0,1041.4,-414.2,9920.0,193.8,225.0,-1607.2,1254.0,331.0,8531.2,220.8,227.0,-1582.2,39.0,460.8,6932.8,238.2,260.6,-1590.8,-1119.4,279.6,5475.0,215.2,290.2,-1576.8,-2108.0,94.8,3747.6,188.0,310.4,-1593.8,-784.2,208.8,2367.8,208.8,294.2,-1602.6,-426.8,379.0,883.4,233.2,366.0,-1624.8,-1125.8,28.6,-996.4,221.6,379.0,-1636.8,507.0,-55.8,-2929.0,206.2,372.0,-1634.4,150.0,-148.4,-4919.4,190.0,376.0,-1625.2,438.8,182.6,-7116.2,211.6,346.8,-1594.2,355.2,648.4,-9276.4,192.4,234.6,-1592.2,1339.0,1342.8,-10710.0,243.0,95.0,-1600.8,144.6,1809.8,-11147.4,299.8,51.2,-1642.6,-1157.2,1922.0,-10683.4,352.2,5.8,-1661.0,-1737.6,1579.4,-9227.4,365.2,84.2,-1692.2,-2300.6,850.4,-7269.2,338.8,116.6,-1674.8,-1580.2,43.0,-4962.4,309.4,130.8,-1650.2,-860.4,-340.6,-2464.4,237.6,199.4,-1629.4,-1311.0,-452.0,-507.2,208.0,218.2,-1629.8,644.6,48.0,1306.8,220.0,164.2,-1604.8,672.6,199.8,2943.6,282.2,147.0,-1650.0,1472.4,-282.0,4901.4,270.0,91.2,-1617.0,462.6,-1096.2,6694.8,LEFT
252.6,137.8,-1668.4,866.4,-1410.4,7979.0,251.8,121.0,-1651.0,1287.2,-1580.0,8919.8,227.2,155.0,-1625.2,-809.8,-2009.4,9179.2,182.0,186.6,-1598.0,570.8,-1688.8,9153.8,162.8,319.4,-1601.6,-542.6,-1689.0,8545.8,106.0,238.8,-1540.4,529.6,-940.0,7653.6,133.4,317.8,-1576.8,-448.4,-603.0,6691.8,106.2,361.0,-1567.8,-1790.4,-130.6,5005.0,127.2,384.2,-1589.4,-732.4,548.8,3224.4,142.0,453.2,-1618.6,-1003.8,515.2,1685.0,147.4,409.4,-1613.0,-45.4,433.6,-149.8,151.6,416.2,-1639.6,-115.4,165.8,-1945.0,122.4,413.2,-1647.0,744.4,136.8,-3541.0,108.4,379.8,-1623.0,443.4,190.0,-5115.8,132.4,405.0,-1614.0,247.2,430.2,-7035.8,136.6,330.6,-1595.6,1153.0,764.2,-8672.8,154.2,237.4,-1580.2,153.6,889.4,-9833.8,162.2,169.4,-1580.8,-717.8,1296.0,-10407.0,191.0,90.4,-1597.6,-1196.2,1613.0,-10164.6,224.0,62.0,-1609.8,-1921.6,1602.8,-8993.8,256.8,116.4,-1646.8,-2625.4,1347.8,-7450.4,231.0,80.4,-1649.6,-2864.8,805.6,-5558.2,230.8,111.0,-1673.6,-1652.6,241.8,-2809.6,230.8,190.0,-1634.8,-2031.6,-564.2,-310.8,198.4,294.0,-1624.8,48.2,-640.0,1619.0,173.0,226.8,-1612.2,1050.4,-671.4,3411.0,177.0,218.4,-1613.2,-6.2,-912.4,4903.0,179.0,193.8,-1638.8,1635.6,-1051.0,6626.0,171.6,194.4,-1602.8,-756.4,-1569.2,7712.2,166.6,279.2,-1616.8,793.8,-1579.2,8483.2,LEFT
126.0,250.6,-1614.4,1970.4,-1137.2,8784.6,135.2,258.4,-1592.8,545.2,-882.6,8502.6,141.4,318.6,-1611.4,478.2,-516.6,7868.4,109.4,279.4,-1571.6,-1220.6,-247.0,6717.4,142.2,392.4,-1608.6,-289.4,-1.4,5608.8,163.6,407.0,-1631.0,-150.6,242.8,4130.8,179.8,405.0,-1599.2,-1600.0,185.4,2420.2,193.8,408.0,-1605.0,-12.4,346.8,1403.2,207.0,402.4,-1623.4,-350.6,118.8,262.6,209.4,410.0,-1616.8,-105.4,43.0,-1159.0,193.4,429.2,-1616.8,453.6,12.0,-2516.4,192.6,438.6,-1607.4,310.8,8.0,-4145.8,165.4,433.0,-1620.0,1245.4,189.0,-5907.8,176.6,384.4,-1635.4,806.0,162.6,-7511.2,146.6,298.0,-1618.0,674.2,243.2,-8516.2,139.8,207.8,-1574.0,312.2,456.8,-8887.6,152.0,128.6,-1580.6,-389.0,850.0,-8877.2,176.6,140.2,-1614.6,-1588.4,1082.2,-8554.0,174.2,132.6,-1586.4,-2337.2,1261.6,-7639.2,205.8,184.4,-1639.2,-1525.8,1231.2,-6165.8,203.6,99.8,-1628.0,-1394.8,520.4,-4195.2,192.8,175.2,-1651.6,-1892.2,-226.0,-1993.4,164.0,207.6,-1647.6,-479.6,-566.2,161.0,122.2,236.2,-1646.2,54.0,-742.4,1849.8,98.0,194.0,-1628.2,1093.8,-733.8,3336.0,96.8,195.8,-1644.8,1137.0,-793.6,4619.8,94.6,155.6,-1638.2,1876.4,-833.6,5884.6,112.6,177.2,-1625.6,571.2,-1095.8,6694.2,57.4,149.4,-1595.4,283.6,-1150.2,7370.2,92.6,206.4,-1610.8,1944.6,-922.8,7967.6,LEFT
86.0,215.4,-1593.6,-959.6,-840.4,7690.0,69.4,212.8,-1608.4,2753.4,30.4,8064.0,141.8,218.6,-1617.4,-59.6,434.4,7652.4,130.4,252.8,-1591.6,-917.6,731.4,6674.2,160.8,203.2,-1572.6,-310.6,994.0,6044.6,223.6,389.6,-1635.8,-1666.0,545.6,4934.2,255.8,397.4,-1621.2,-1343.4,391.8,2807.4,214.4,472.4,-1638.0,-643.8,86.8,1189.0,216.2,509.4,-1637.6,-724.0,-149.0,-1249.4,155.2,468.8,-1618.6,825.6,-31.0,-3377.4,173.0,457.0,-1617.8,-140.2,-168.4,-5450.8,126.6,440.4,-1622.2,798.4,-37.2,-7307.8,144.2,349.2,-1593.0,34.6,168.6,-8887.4,134.6,302.6,-1601.6,-73.4,677.4,-9887.6,134.8,195.0,-1586.4,-2283.2,1046.4,-10101.4,166.8,216.2,-1592.4,-4609.8,1435.6,-9890.6,191.4,234.6,-1618.0,-2586.2,1699.6,-8540.4,188.4,285.0,-1655.6,-2479.6,1364.8,-6887.8,182.0,344.6,-1635.2,-791.0,1050.8,-5442.8,161.8,306.2,-1606.0,-387.0,693.2,-3967.0,135.4,243.0,-1614.0,80.4,278.0,-1919.0,112.8,263.2,-1602.6,501.8,-78.2,195.2,102.0,279.4,-1605.8,652.2,-409.0,1968.4,93.0,198.0,-1600.6,915.4,-564.4,3853.4,107.2,165.8,-1628.8,1838.6,-725.6,5998.8,96.4,74.6,-1608.6,1091.6,-831.8,8031.8,130.6,116.4,-1623.8,1537.8,-610.8,9377.0,126.0,154.0,-1639.0,2700.6,-523.0,10103.2,126.2,197.0,-1633.6,2809.4,-567.6,9969.4,118.4,195.0,-1616.6,852.2,-474.6,9006.6,LEFT
130.2,252.6,-1646.4,-4916.8,-285.0,315.8,77.4,337.2,-1613.8,-8558.6,-408.0,164.4,-68.4,508.2,-1609.6,-12992.8,-101.8,-158.8,-304.4,773.8,-1502.0,-13113.8,89.0,-369.8,225.0,1186.8,-1379.8,-9743.6,-438.2,-116.8,155.4,1227.6,-1141.6,-10794.6,480.4,-385.0,27.4,1329.0,-934.6,-10674.6,1820.6,-767.2,35.2,1479.2,-817.8,-9562.4,2558.2,-236.6,119.0,1560.8,-681.0,-9879.8,2764.0,599.8,188.6,1616.4,-502.8,-9127.2,2751.8,130.4,186.4,1663.2,-355.4,-7282.0,2443.2,410.2,233.8,1737.8,-246.6,-4826.2,1533.4,753.2,285.6,1728.2,-143.8,-2995.0,1046.2,542.8,252.8,1746.6,-118.8,-1739.0,555.2,541.6,250.8,1744.4,-91.0,-340.0,-8.4,494.2,265.8,1756.0,-106.0,858.6,-440.0,477.8,277.0,1766.2,-127.0,2242.8,-750.0,243.2,239.8,1751.2,-191.2,3578.4,-1021.8,-39.0,232.0,1739.6,-278.6,5701.0,-1714.6,-80.2,225.8,1733.2,-366.6,7827.8,-1963.4,-534.0,216.6,1603.0,-543.2,10050.6,-2356.8,-159.0,182.4,1542.8,-780.8,13266.2,-2968.4,-464.6,178.2,1324.6,-956.6,15160.8,-3383.0,-226.6,90.6,1113.2,-1192.0,16642.2,-2935.0,-382.8,22.4,761.8,-1366.8,14741.2,-1571.0,-1677.8,-11.8,540.0,-1492.6,9578.0,-110.0,-1136.0,13.2,442.4,-1553.2,7643.0,891.8,-2088.2,59.0,307.4,-1629.6,3940.8,553.8,152.4,24.2,208.8,-1609.8,3056.2,376.8,301.8,11.8,185.2,-1621.2,-383.8,614.0,-517.6,TILT_R
-8.4,107.6,-1636.4,-1005.4,461.8,-185.2,34.2,144.2,-1634.8,-886.0,157.8,-303.8,50.2,138.8,-1632.4,-586.6,144.4,-67.6,32.6,176.6,-1620.0,-1625.4,119.8,-27.0,8.6,227.2,-1601.8,-2877.8,3.8,4.8,17.4,287.0,-1598.6,-4735.4,-10.4,283.0,44.2,418.6,-1586.4,-7201.2,160.4,287.4,64.8,546.0,-1537.6,-8856.4,298.8,528.0,54.4,683.6,-1471.4,-10446.2,748.8,633.4,78.0,946.4,-1329.2,-13312.8,1325.2,618.8,155.0,1160.6,-1202.4,-12665.4,1456.6,275.6,219.0,1410.8,-1126.8,-11429.2,1500.2,280.6,177.0,1544.8,-932.8,-11939.0,2142.4,-370.0,107.2,1675.6,-762.0,-9727.6,2151.8,316.4,184.0,1716.2,-529.6,-8267.8,2253.2,491.8,203.8,1729.2,-346.8,-7148.0,2149.6,859.2,255.0,1722.6,-224.0,-4412.4,1565.8,761.0,267.0,1760.0,-122.0,-1309.0,621.0,612.4,247.6,1720.6,-143.2,932.4,-222.6,385.6,244.6,1745.8,-175.6,2617.0,-894.0,342.6,218.6,1722.8,-235.8,4851.6,-1642.6,159.4,204.6,1693.8,-373.6,7603.6,-2558.4,33.0,202.4,1650.6,-567.6,10072.6,-3083.4,-340.6,154.2,1518.4,-713.6,11968.6,-3412.0,-398.6,137.4,1401.2,-926.8,13283.8,-3145.4,-49.2,127.8,1253.4,-1092.0,14122.4,-2784.6,-41.2,120.2,1023.6,-1274.4,14888.8,-2004.8,-189.2,98.4,699.8,-1385.8,14956.0,-1680.6,308.6,21.6,494.4,-1570.0,11429.8,-774.0,-1056.8,-13.8,284.8,-1593.8,6414.0,-471.4,-33.8,TILT_R
-35.0,167.8,-1601.4,3076.6,123.4,-877.4,-38.0,82.2,-1642.4,1384.8,465.2,-594.0,-37.6,71.2,-1640.4,470.6,337.2,-26.0,1.8,30.0,-1643.0,-169.8,223.2,69.2,-15.0,64.4,-1615.8,-1194.2,219.8,-48.4,0.8,92.4,-1613.4,-1534.2,152.2,-2.4,1.2,116.4,-1600.6,-2412.4,330.4,110.6,3.8,165.8,-1599.4,-4526.0,654.2,100.0,3.8,271.6,-1584.8,-7720.2,1077.0,-2.6,-9.8,438.6,-1564.8,-10617.4,1497.6,-387.2,25.0,652.6,-1494.8,-11849.6,1824.4,-320.2,67.8,878.2,-1399.8,-11873.2,2086.4,-254.6,97.8,1085.4,-1241.0,-12607.6,2435.6,-295.8,119.0,1277.6,-1101.0,-11873.6,2571.4,-237.0,191.0,1455.8,-930.0,-10946.2,2668.2,-88.6,194.2,1553.4,-726.0,-10821.0,2907.6,60.8,238.6,1673.0,-515.0,-10164.2,2991.6,678.0,263.0,1730.0,-323.8,-7722.2,2800.0,670.0,323.2,1789.6,-199.0,-3809.6,1541.8,840.8,317.4,1747.6,-147.8,-1602.8,711.4,400.4,304.8,1752.8,-141.2,329.4,-3.4,-72.0,291.6,1721.0,-174.8,1840.2,-671.0,-174.4,277.2,1753.6,-234.2,4061.0,-1590.4,-323.8,291.6,1713.0,-313.0,5867.6,-2335.0,-417.6,256.8,1664.2,-473.6,8762.0,-3256.0,-561.4,224.2,1568.2,-603.8,10284.6,-3567.4,-619.0,178.8,1500.2,-804.0,13207.6,-4364.8,139.0,113.2,1345.2,-1048.2,16297.4,-4900.6,673.8,35.2,1141.0,-1179.2,13856.0,-3503.6,543.2,70.0,914.6,-1346.0,11173.2,-2056.2,24.4,TILT_R
-19.6,815.4,-1445.2,9347.4,-1031.8,-561.0,-13.2,540.8,-1522.6,7932.4,-373.6,-1004.6,11.0,392.8,-1555.8,8913.8,21.2,-946.8,-5.0,192.4,-1590.6,3092.6,671.8,-1966.6,3.0,111.6,-1634.6,1715.6,604.0,-1274.2,-6.8,103.4,-1644.6,984.4,320.4,-852.4,-26.6,68.4,-1645.6,619.8,221.8,82.0,-21.2,63.8,-1646.2,129.6,230.8,-7.0,3.0,69.4,-1637.2,-737.0,-0.4,298.2,0.6,86.6,-1617.0,-1798.2,154.8,304.0,1.6,138.6,-1610.8,-3827.0,309.0,596.8,10.6,231.0,-1587.6,-6781.4,595.2,728.0,25.2,382.0,-1577.8,-10716.4,1129.2,361.4,37.6,626.8,-1471.0,-13919.2,1773.8,-42.0,50.2,926.8,-1318.0,-15450.6,2376.8,-380.8,88.8,1173.8,-1141.2,-15229.6,2822.8,-410.6,154.8,1422.4,-925.4,-14203.4,2989.0,-263.2,187.4,1570.8,-753.4,-11857.4,3068.6,-114.6,177.6,1647.4,-535.2,-10842.6,3233.0,-544.0,138.2,1724.4,-412.4,-7466.6,2561.6,-191.8,245.2,1707.0,-334.6,-4967.4,1952.6,-139.6,203.0,1742.8,-275.4,-1374.8,790.8,-114.6,227.2,1711.2,-253.4,456.6,-56.0,-83.4,218.4,1728.2,-283.8,2387.6,-954.8,103.2,214.2,1736.2,-352.0,5143.2,-2048.8,215.2,199.2,1697.0,-456.6,8596.2,-3098.4,168.6,174.6,1611.8,-654.6,12797.0,-4321.6,418.6,130.8,1442.2,-841.0,16198.4,-4817.6,436.0,35.4,1210.8,-1089.6,16439.0,-3772.2,40.2,31.2,950.4,-1348.8,16944.6,-2661.0,-441.6,TILT_R
20.0,755.8,-1448.8,14984.2,-1850.4,123.6,33.6,377.8,-1599.2,10115.8,-624.4,-515.0,89.0,416.2,-1645.4,6503.4,37.8,136.0,43.2,115.0,-1616.4,3463.0,461.6,-537.0,-80.8,-0.8,-1596.0,2330.8,296.4,83.8,-34.8,-22.0,-1631.2,705.4,90.6,121.2,-71.0,-11.6,-1650.0,-508.8,43.0,280.4,-19.8,-14.8,-1643.8,-556.8,-123.8,547.6,-26.8,-4.2,-1623.6,-1395.2,-87.6,572.6,-29.8,18.2,-1604.4,-3136.0,72.2,556.4,-20.0,103.4,-1593.0,-5255.0,305.0,553.4,6.0,226.0,-1575.8,-8742.6,616.4,489.2,-4.2,426.2,-1503.2,-12815.0,1291.8,124.2,-3.0,699.2,-1390.8,-15672.8,2107.0,-37.0,55.2,1010.8,-1310.4,-14161.0,2561.2,-281.8,75.8,1165.6,-1088.8,-14436.0,3204.2,-668.0,116.6,1366.4,-868.4,-13979.8,3628.4,-810.2,143.8,1566.6,-627.0,-13667.6,3992.4,-86.4,122.8,1742.8,-525.8,-11742.8,3588.0,168.6,138.8,1814.2,-208.4,-9783.2,3336.6,438.4,165.6,1790.0,-85.0,-4526.0,1897.6,337.0,229.6,1743.0,-82.4,-1583.4,970.8,234.2,255.4,1746.0,-50.4,315.4,6.2,319.6,261.0,1758.4,-67.2,1370.6,-537.0,116.0,260.4,1758.6,-100.0,3310.8,-1254.4,65.4,216.0,1768.0,-195.6,6226.2,-2382.6,-204.4,203.2,1742.0,-360.2,10527.2,-3787.6,-420.4,169.2,1641.0,-533.0,14268.0,-4308.4,-585.8,138.8,1440.2,-753.6,16567.6,-4192.8,136.0,44.0,1184.6,-1017.6,15178.8,-3199.4,214.0,TILT_R
12.2,1000.6,-1206.8,16612.8,-2622.0,267.0,-29.2,634.2,-1409.6,16486.6,-1691.0,-935.4,-46.2,439.0,-1497.4,13650.2,-382.6,-1849.2,-54.2,11.8,-1575.8,6619.6,831.4,-1305.8,-5.6,14.8,-1669.2,4564.8,770.2,-546.0,-43.2,-4.2,-1636.8,1862.8,489.4,-35.2,-8.6,-92.4,-1661.8,701.4,335.4,-156.4,2.8,-63.2,-1641.2,-475.8,127.0,16.4,12.0,-55.0,-1638.2,-839.4,-40.0,70.2,9.2,-23.4,-1612.8,-1806.4,46.0,-1.6,20.2,25.4,-1612.8,-3386.4,165.8,-12.8,9.2,104.8,-1598.6,-5900.4,309.6,67.0,-2.8,249.8,-1570.2,-9949.8,748.0,230.4,-1.8,516.0,-1512.0,-15029.6,1425.0,233.4,70.4,770.6,-1392.4,-17482.4,2030.2,76.8,89.0,1131.6,-1156.0,-19936.4,3199.4,-341.8,164.0,1413.2,-930.4,-18528.4,4062.4,-764.8,195.0,1595.2,-681.6,-14201.0,3820.6,-928.8,275.4,1696.4,-434.4,-10732.4,2929.4,-91.6,237.8,1778.4,-247.0,-4842.8,1348.2,426.6,296.8,1769.2,-193.6,-1481.0,529.0,330.8,229.2,1714.0,-167.4,225.6,-4.2,194.4,216.4,1717.4,-193.6,1826.4,-797.0,417.6,216.6,1736.6,-225.0,2576.4,-1061.0,251.4,214.4,1731.6,-301.2,3727.0,-1498.4,271.2,216.2,1730.8,-418.6,6453.2,-2429.4,276.4,216.4,1664.4,-535.0,9408.2,-3367.2,385.6,191.4,1576.8,-715.2,13149.8,-4288.2,643.8,137.4,1393.6,-935.8,16134.8,-4562.0,701.0,108.4,1180.2,-1153.2,17866.2,-4292.6,430.6,TILT_R
53.8,866.8,-1277.2,15686.6,-2772.2,326.6,55.8,673.4,-1422.0,11901.2,-1028.4,-570.2,52.2,271.8,-1552.2,9360.2,-239.0,-358.4,-30.4,133.4,-1577.6,4417.8,294.8,-178.2,-60.4,82.0,-1620.6,2996.8,402.8,-806.8,-23.4,36.4,-1617.8,1093.6,542.2,-475.8,-28.0,3.0,-1636.0,17.8,339.6,-301.2,1.8,-0.2,-1652.6,-535.0,66.6,-25.6,16.2,20.8,-1629.2,-649.0,-5.0,125.6,20.6,24.2,-1625.6,-1272.2,53.8,129.2,-3.2,48.0,-1594.2,-2346.6,179.6,98.0,11.8,99.4,-1587.2,-4522.2,478.0,88.4,18.8,221.0,-1585.2,-7180.2,783.0,151.8,46.2,419.6,-1544.0,-10215.2,1215.4,142.6,67.6,625.8,-1501.2,-13152.8,1767.8,39.8,124.6,910.0,-1366.2,-15676.4,2321.6,121.4,84.6,1145.8,-1147.4,-17668.0,3418.8,-399.4,120.2,1433.0,-937.0,-15615.0,4104.2,-794.2,178.8,1595.6,-673.4,-11824.8,3671.0,-437.4,142.0,1680.4,-525.0,-7719.4,2588.4,832.6,219.0,1650.6,-373.6,-7631.8,3079.0,723.4,189.0,1789.4,-274.0,-5582.4,2286.6,1124.2,319.2,1822.6,-179.0,-1724.8,443.4,1493.2,367.0,1752.4,-287.4,423.2,370.2,-29.6,274.0,1729.6,-267.0,1808.8,-699.8,16.0,390.2,1710.8,-288.8,4541.0,-2047.6,510.8,356.6,1670.4,-394.4,6168.0,-2878.6,544.8,350.0,1614.4,-552.0,9623.6,-4234.4,863.4,374.2,1562.6,-746.8,13405.6,-5406.0,947.2,309.8,1377.2,-950.8,15434.0,-5788.2,950.6,TILT_R
137.0,1165.0,-1193.0,15528.4,-5358.2,642.8,113.8,831.8,-1337.6,15015.6,-4381.2,-419.6,-29.2,595.2,-1498.4,12016.8,-3199.4,-197.6,-78.2,447.4,-1575.6,6848.2,-1370.2,-30.6,-49.2,314.2,-1527.6,1799.6,535.6,-980.8,-14.0,301.6,-1616.6,1100.8,337.6,189.4,-16.6,221.0,-1605.8,-132.6,494.0,-738.0,-9.4,231.8,-1597.6,-1802.2,340.2,-65.4,-0.8,282.4,-1618.8,632.8,-65.0,60.4,47.6,314.4,-1585.8,-460.8,147.6,-182.6,55.4,250.6,-1537.4,-1175.2,299.0,424.8,-46.2,265.2,-1539.4,-3781.0,766.0,86.2,-30.6,325.2,-1526.4,-6313.4,1267.0,-774.2,-18.2,549.2,-1515.6,-9668.8,2123.8,-958.2,38.2,762.8,-1443.8,-11099.2,2813.2,-844.8,131.4,981.0,-1349.4,-11836.6,3077.8,-1369.0,174.4,1172.2,-1275.8,-12865.4,2902.0,-1220.8,219.0,1385.2,-1046.0,-12509.4,2706.2,-1050.8,297.0,1557.6,-917.4,-8714.2,1962.8,-508.6,263.0,1618.6,-831.0,-7416.0,1474.2,132.0,208.2,1669.4,-721.8,-8107.4,1983.8,263.4,181.8,1634.2,-504.0,-4717.2,1588.2,-289.0,225.4,1659.4,-458.8,-599.6,102.2,184.4,261.2,1633.4,-428.0,165.6,-238.4,405.4,270.8,1652.2,-431.0,-476.6,106.8,509.6,271.8,1714.4,-454.0,134.6,-350.2,463.8,274.0,1712.8,-483.0,1520.4,-843.8,438.6,272.2,1712.2,-547.2,3719.8,-1581.8,676.6,270.0,1692.6,-620.0,6368.0,-2264.4,827.2,200.6,1627.6,-753.4,9978.6,-3426.4,1014.8,TILT_R
225.0,1519.8,-887.2,13647.8,-3833.6,786.0,271.0,1230.0,-1091.8,17073.4,-4535.2,580.8,151.6,975.8,-1301.2,16230.2,-3646.8,274.6,73.8,645.6,-1453.4,12859.8,-2067.2,-481.0,-50.8,396.2,-1532.4,10521.6,-1294.0,254.6,7.4,210.6,-1645.8,6861.8,-277.2,-438.2,9.6,167.8,-1634.8,3279.0,200.6,729.4,19.6,114.2,-1658.2,2561.8,315.8,-671.4,7.4,38.6,-1634.0,-498.0,511.4,87.4,15.6,47.0,-1630.8,-721.8,253.6,148.8,24.8,79.2,-1618.6,-978.8,302.0,-105.0,12.0,82.6,-1625.2,-710.0,222.2,10.0,12.2,92.8,-1618.8,-1728.6,332.8,-37.4,21.6,131.4,-1624.2,-3503.4,468.8,-162.4,24.0,230.2,-1620.6,-5263.6,667.8,-109.4,47.8,354.6,-1584.8,-7379.0,1094.2,-244.8,78.2,510.6,-1537.6,-9425.4,1623.8,-425.0,135.0,726.4,-1452.0,-13175.6,2622.4,-75.8,163.0,982.4,-1306.2,-16095.8,3657.2,-467.0,128.4,1217.6,-1066.4,-15004.6,4140.8,-888.8,271.6,1368.4,-881.0,-10515.6,3399.6,-1599.6,288.4,1569.8,-755.0,-7796.6,2971.4,-1158.0,247.4,1567.8,-629.2,-5666.4,2573.8,-1065.2,240.6,1652.8,-589.2,-3793.6,1864.6,-624.6,261.2,1669.8,-491.2,-2905.8,1418.4,-428.0,261.2,1691.4,-507.0,257.6,-117.8,453.6,286.6,1661.8,-489.6,1719.6,-890.0,533.4,270.2,1655.4,-520.0,2401.6,-1016.4,623.8,284.4,1651.4,-573.0,3843.0,-1580.2,827.0,241.6,1623.2,-642.8,5904.2,-2208.0,1232.2,TILT_R
243.8,1541.8,-769.4,9004.6,-2962.6,1110.0,256.6,1451.0,-962.8,13311.2,-4138.0,1540.2,178.6,1206.6,-1104.2,13960.8,-3909.4,1282.8,150.8,1047.8,-1229.8,13074.0,-2858.4,1022.4,117.8,751.4,-1412.4,14722.2,-3000.6,348.4,118.4,548.2,-1578.6,12343.2,-2320.2,599.2,50.0,292.0,-1571.2,9992.2,-1201.2,-585.2,-46.0,150.8,-1626.6,6531.8,7.4,-1191.0,-40.0,-42.0,-1647.6,3412.2,413.0,-707.6,69.4,-81.4,-1632.4,1550.8,327.6,-163.8,-1.8,-135.4,-1620.4,413.2,218.0,335.2,35.8,-132.6,-1616.0,-499.4,165.8,197.2,34.6,-124.2,-1614.2,-806.0,33.6,222.8,46.2,-104.2,-1615.2,-1513.2,42.2,86.0,23.6,-69.0,-1603.4,-3213.0,285.0,-92.2,38.6,29.6,-1607.2,-5607.6,491.2,-95.0,51.2,179.0,-1594.2,-8867.4,703.4,-200.0,63.6,390.6,-1541.6,-11507.6,1016.4,-89.6,49.6,718.0,-1489.6,-13309.6,1498.2,606.8,58.6,916.0,-1410.6,-14644.0,2466.6,-396.4,189.0,1233.4,-1185.2,-16007.4,3045.6,-802.0,195.2,1348.6,-985.8,-14463.8,3392.0,-1673.0,206.8,1503.0,-818.8,-12813.0,3341.2,-1375.2,243.8,1601.0,-625.8,-11401.8,3506.0,-431.6,153.8,1669.4,-465.0,-5203.0,2047.8,81.6,274.0,1658.8,-455.2,-2003.2,998.0,683.0,263.8,1676.0,-378.0,-996.2,512.2,719.8,266.8,1685.8,-384.6,92.6,-228.6,658.4,243.2,1691.6,-391.6,647.6,-265.4,463.6,324.4,1687.0,-379.2,1381.2,-618.0,642.6,TILT_R
103.8,218.8,-1608.2,708.4,424.6,-230.6,131.4,207.8,-1627.0,2012.0,556.8,-539.0,144.0,140.2,-1638.8,4036.0,489.2,-839.2,126.2,48.0,-1661.2,3980.6,515.8,-1221.8,143.8,-56.2,-1710.8,7306.6,-212.0,-1492.4,123.8,-141.4,-1736.8,8112.8,-415.4,-2236.2,24.4,-529.8,-1748.4,8433.4,-470.0,-2447.6,-35.0,-465.4,-1982.2,8692.4,175.6,-2971.6,198.0,-485.4,-1457.2,4200.6,193.0,-1734.2,190.8,-635.8,-1481.6,4215.6,474.0,-2177.6,102.0,-784.4,-1417.8,5090.8,63.4,-1458.4,185.2,-862.8,-1353.4,3869.6,-362.4,-1128.0,191.2,-903.2,-1246.2,1372.8,10.0,-280.6,207.6,-931.0,-1256.4,441.4,360.8,182.4,227.8,-934.8,-1302.6,-1101.0,-58.4,891.8,192.8,-893.0,-1315.4,-2450.6,-306.0,1141.6,166.8,-844.6,-1365.8,-2833.4,-579.0,1644.0,131.6,-780.6,-1394.6,-3835.2,-532.2,2048.8,122.4,-701.6,-1430.0,-6314.0,-738.6,2332.6,92.0,-551.2,-1496.6,-8536.6,-1102.4,3000.4,-11.2,-382.2,-1516.0,-9818.2,-1270.6,2840.0,16.8,-150.6,-1576.8,-12347.8,-692.4,3231.6,-56.8,142.2,-1546.4,-12927.2,-475.0,2488.0,-113.4,450.6,-1581.4,-10071.2,118.6,1245.2,-46.6,695.8,-1579.8,-7058.6,541.4,1098.8,10.0,692.2,-1532.4,-4781.2,1095.6,541.0,-4.6,812.8,-1553.6,-888.4,988.2,-24.0,16.4,771.8,-1544.8,578.6,521.4,180.4,26.8,753.4,-1535.8,1420.8,221.6,327.8,25.0,717.8,-1555.0,2325.4,124.2,56.8,TILT_L
25.0,673.8,-1573.8,3930.2,62.2,-159.6,20.8,579.4,-1585.4,6965.4,144.4,-636.8,41.2,407.4,-1605.8,12273.8,-24.4,-1278.8,80.4,64.2,-1567.6,15591.4,251.8,-1999.0,58.8,-257.0,-1529.0,12862.2,722.6,-1754.8,105.2,-541.4,-1464.2,11141.2,929.6,-2487.6,136.2,-699.4,-1347.6,9625.0,1071.4,-2655.0,300.8,-940.4,-1202.2,6584.2,1330.0,-3106.6,265.6,-1039.8,-1186.0,3630.4,1646.0,-3415.4,326.8,-1046.4,-1174.0,1424.2,1806.8,-2818.4,449.0,-1047.0,-1162.6,1473.8,1039.6,-1046.4,415.4,-1087.0,-1133.6,442.0,209.2,-70.0,341.4,-1104.2,-1134.4,-1157.4,-268.0,326.0,378.0,-1081.8,-1165.8,-2911.0,-761.8,1224.8,337.6,-1037.2,-1187.2,-5748.2,-1456.2,1974.2,264.4,-931.0,-1241.6,-9876.4,-2190.6,3452.4,197.4,-693.2,-1340.4,-13936.0,-2933.4,4363.8,79.0,-375.4,-1511.8,-15032.6,-3581.6,5176.4,76.6,-124.0,-1497.6,-15715.6,-3576.2,4068.4,22.2,188.2,-1572.8,-14573.8,-2275.8,4089.0,-126.4,478.0,-1556.2,-10316.4,-153.8,2735.0,-92.4,651.8,-1637.4,-6762.2,487.6,1204.4,-116.2,718.2,-1408.0,-5030.6,1612.2,-694.2,-85.6,858.6,-1520.4,-2890.4,1725.0,-161.6,-75.0,889.0,-1500.8,1893.0,1223.6,-38.8,-8.4,801.6,-1483.8,3362.6,805.4,420.8,-29.8,710.8,-1474.2,3031.8,951.0,-164.6,-1.6,704.8,-1502.8,2440.8,728.6,-258.0,13.0,639.2,-1505.4,4822.6,569.8,-854.4,13.8,526.8,-1552.2,7164.4,568.8,-1280.8,TILT_L
6.2,325.0,-1544.4,12484.8,287.6,-2410.4,22.0,-103.0,-1567.0,16974.0,415.8,-2184.4,37.8,-439.4,-1514.6,17867.0,2122.6,-1148.2,-26.4,-625.4,-1516.2,8543.0,1708.8,-2533.2,138.8,-779.6,-1414.0,4521.2,1208.2,-1971.2,149.4,-800.6,-1385.2,3541.0,334.8,-1399.8,201.6,-882.8,-1335.2,1393.6,-167.4,-541.8,197.4,-880.2,-1286.4,8.0,-73.8,-101.6,182.6,-886.4,-1266.2,-153.8,115.0,27.2,177.4,-902.8,-1323.0,-634.0,50.8,190.2,160.6,-915.8,-1348.4,-1602.0,-65.6,227.4,156.2,-874.6,-1364.4,-2929.6,-197.8,789.0,139.8,-800.6,-1396.0,-5149.2,-348.0,1646.8,109.0,-684.0,-1444.0,-8073.4,-534.4,2572.6,86.4,-514.6,-1495.2,-10992.0,-484.6,3314.8,37.8,-192.0,-1557.4,-13989.8,-588.2,3112.0,26.0,146.2,-1564.6,-18321.0,-471.8,3523.0,42.6,476.6,-1589.6,-11825.6,-992.4,1989.6,15.4,713.2,-1515.2,-6154.0,-793.2,858.4,-67.4,757.8,-1570.2,-243.0,-657.6,-182.4,-115.0,755.6,-1534.0,572.4,389.6,133.6,-76.8,743.6,-1524.4,895.6,560.8,85.6,-62.2,733.4,-1576.2,1081.2,-188.2,-252.6,-142.2,567.0,-1563.0,1590.4,-836.2,-1215.0,-12.8,635.0,-1571.2,918.2,-456.0,-623.0,-44.2,623.0,-1552.4,227.2,47.4,-22.8,-78.0,636.8,-1556.0,1118.0,-63.4,-641.6,-8.4,621.6,-1548.2,2212.4,25.6,-548.2,-62.0,537.6,-1579.2,4026.8,462.6,-587.4,-4.4,434.4,-1550.8,7736.6,526.0,-1776.4,TILT_L
-27.4,248.8,-1598.2,12245.4,709.0,-2654.4,25.0,-108.0,-1601.2,16179.0,771.2,-3509.8,43.8,-478.2,-1472.6,13165.4,973.4,-2960.4,106.6,-730.6,-1358.2,8842.6,863.0,-3217.4,80.2,-855.4,-1359.4,5085.4,985.6,-2560.0,148.0,-949.0,-1305.6,4902.0,446.6,-1902.6,208.2,-982.2,-1267.2,2549.8,90.2,-1538.8,214.0,-979.4,-1198.0,1134.4,-44.6,-831.8,233.8,-1025.4,-1201.2,-582.4,-10.2,121.4,221.8,-986.4,-1223.8,-1020.4,-105.4,859.2,230.2,-980.4,-1223.8,-1907.2,29.2,1250.2,204.2,-974.6,-1260.8,-3310.2,-100.6,1633.4,135.6,-916.0,-1306.8,-5743.2,-202.4,2073.6,136.4,-768.8,-1369.0,-9180.6,-668.0,3483.0,147.0,-564.8,-1386.8,-12158.0,-670.0,4099.0,157.6,-297.4,-1435.4,-14094.4,-1017.6,5364.2,115.2,28.0,-1577.8,-15083.4,-400.0,4910.4,-51.8,402.6,-1527.6,-15220.2,278.4,2777.2,-89.6,599.8,-1559.4,-9246.0,200.0,1215.2,-44.2,818.2,-1554.0,-4443.0,599.4,385.8,-23.0,838.4,-1536.2,-931.8,715.8,744.8,5.8,820.8,-1488.4,-375.6,517.2,689.0,34.0,817.6,-1462.0,-1046.2,523.8,266.0,30.2,861.8,-1480.8,-580.4,182.0,329.4,44.0,848.8,-1475.0,-123.6,128.4,338.6,44.6,840.8,-1482.0,70.8,145.4,111.4,71.4,835.2,-1477.0,389.0,59.2,21.4,39.6,823.6,-1506.0,1261.6,64.2,-47.4,63.0,808.0,-1527.4,3013.6,-64.4,-243.4,34.0,733.4,-1520.8,5192.4,-186.0,-341.2,TILT_L
29.4,611.0,-1528.0,8275.0,-285.0,-1107.0,19.0,432.4,-1534.0,12225.8,-514.0,-1823.6,67.6,85.0,-1525.8,16368.6,-703.4,-2505.6,40.4,-247.2,-1447.4,15570.6,-132.4,-2612.8,162.0,-546.4,-1435.2,11638.8,351.0,-3162.0,133.4,-773.8,-1374.4,7622.4,587.2,-3204.4,114.2,-889.0,-1316.0,5143.0,567.2,-2692.6,102.2,-1024.0,-1229.0,3100.0,370.4,-1974.4,173.4,-1018.2,-1197.2,907.0,96.0,-603.0,210.6,-1019.8,-1217.8,-431.4,-272.0,-30.4,176.0,-1018.6,-1195.6,-361.8,-768.2,741.8,118.2,-1025.2,-1180.2,-1153.4,-139.6,653.0,180.6,-1010.0,-1222.0,-2348.2,-213.8,1219.6,126.8,-987.0,-1256.4,-4395.2,-264.2,1960.6,103.0,-920.8,-1305.6,-7866.4,-216.8,2836.0,65.8,-712.0,-1375.8,-11938.2,-158.6,3397.6,34.2,-401.6,-1415.4,-14395.6,110.6,2905.0,14.4,-67.8,-1420.2,-15703.0,613.2,2475.2,-45.6,216.2,-1573.4,-14589.2,931.2,2050.6,23.0,548.8,-1479.8,-13903.2,1737.0,1571.0,30.6,815.4,-1581.4,-6874.6,1425.0,1178.4,109.8,887.8,-1527.4,-1545.6,616.8,907.2,108.0,795.4,-1546.8,574.4,357.6,396.2,141.0,803.8,-1497.2,-7.2,125.8,412.8,113.0,775.0,-1499.2,244.8,-241.2,281.6,107.0,776.0,-1478.6,-190.2,-254.4,301.2,95.8,776.0,-1478.6,-13.2,-145.8,80.0,79.6,785.6,-1496.2,636.4,-148.2,58.6,101.2,763.2,-1495.4,1891.0,-335.6,-303.4,79.0,727.8,-1531.6,4603.0,-742.8,-709.6,TILT_L
69.2,617.2,-1566.6,7916.8,-1221.2,-932.0,22.6,439.2,-1545.4,12095.2,-1332.4,-1667.4,-54.6,187.2,-1554.8,17874.2,-1495.8,-2852.6,-96.0,-216.4,-1494.0,20203.0,-1105.4,-3360.4,-131.0,-506.6,-1392.2,10945.6,113.6,-3512.2,-78.4,-841.2,-1359.4,5661.8,794.8,-3416.4,71.4,-846.2,-1344.0,3993.0,695.4,-2497.8,67.0,-907.6,-1292.6,3239.4,639.8,-1797.0,129.6,-966.0,-1279.2,1937.8,722.8,-1823.6,158.0,-1037.4,-1235.0,1030.4,380.0,-1040.2,184.0,-1058.6,-1210.4,-79.4,203.6,-355.4,239.8,-1056.2,-1192.6,-789.8,-69.4,100.8,244.8,-1043.4,-1207.4,-1215.6,-105.8,552.8,219.0,-1026.2,-1242.0,-1848.2,-242.4,1096.2,196.6,-1004.6,-1251.6,-3751.0,-395.4,1890.0,113.6,-944.6,-1278.0,-6398.8,-559.0,2834.8,27.2,-799.2,-1361.6,-10116.4,-792.6,3766.0,-3.8,-555.8,-1352.2,-14601.8,-405.0,4335.0,50.0,-211.8,-1373.6,-18146.0,162.4,4892.4,40.8,271.0,-1482.0,-17750.6,738.4,4120.4,15.4,698.6,-1667.0,-9165.6,206.4,2238.2,80.4,740.0,-1670.0,-1910.2,-368.6,1124.6,-26.0,700.4,-1590.8,330.4,-191.4,511.8,-55.0,683.8,-1581.4,140.8,41.0,465.8,-57.0,662.2,-1510.4,255.8,185.8,314.4,-43.6,635.6,-1565.6,773.8,292.8,529.0,-33.4,608.8,-1543.6,857.4,409.4,-267.8,-21.2,582.4,-1564.2,1156.0,337.4,-463.2,50.0,567.4,-1551.6,1259.4,633.2,-1187.4,42.6,570.0,-1555.0,3214.6,421.0,-1953.4,TILT_L
90.4,436.4,-1596.8,5526.6,87.8,-1437.8,105.2,340.0,-1611.2,8758.0,-98.8,-1762.8,-18.6,85.8,-1622.2,12169.0,332.4,-2915.4,85.4,-196.8,-1523.2,13950.6,568.0,-3052.0,167.2,-580.4,-1428.6,12482.0,559.0,-3644.2,176.8,-795.2,-1350.0,8190.0,1094.8,-3798.8,117.4,-956.0,-1358.4,3620.6,1344.8,-2857.6,196.6,-952.0,-1328.0,3447.6,272.8,-1066.2,165.0,-1002.8,-1250.0,1568.6,361.4,-716.6,247.2,-976.2,-1268.0,294.0,128.2,-462.2,219.6,-987.0,-1245.6,103.0,-54.0,301.0,214.2,-1007.4,-1230.6,-399.6,-179.8,568.2,216.0,-1019.4,-1273.4,-1270.8,-470.8,989.6,155.2,-995.0,-1302.2,-2694.4,-822.4,1445.6,90.8,-943.6,-1317.4,-5103.4,-1231.8,2526.0,-41.8,-821.8,-1379.4,-8688.8,-1511.2,3672.8,-54.2,-610.4,-1371.8,-13776.4,-692.8,4379.6,-69.8,-281.8,-1482.8,-14261.4,-261.6,4260.4,-88.2,53.6,-1474.4,-15285.0,815.4,4499.8,-112.2,438.0,-1583.0,-11970.4,965.4,2859.2,-37.2,601.6,-1609.8,-8448.8,975.0,897.4,12.4,730.0,-1572.8,-3491.0,922.6,259.6,22.2,723.0,-1556.6,-1795.6,1103.8,-103.8,38.6,765.8,-1522.6,-2024.2,1150.6,-154.0,71.8,800.0,-1538.8,-178.6,451.8,-20.0,94.6,778.4,-1520.8,768.0,-50.8,219.6,77.0,748.4,-1516.2,577.6,6.8,1.2,34.2,732.4,-1501.4,520.4,-25.0,-139.0,49.2,724.8,-1524.2,812.8,-34.2,-158.2,67.4,711.6,-1539.2,1445.8,-110.0,-150.8,TILT_L
64.0,690.4,-1541.8,2671.2,-259.2,-260.2,34.4,615.6,-1566.4,5161.8,-541.6,-506.6,9.2,481.8,-1586.8,8899.0,-845.8,-996.2,18.6,248.4,-1585.2,13293.4,-1118.8,-1877.2,8.4,-81.0,-1538.8,15094.2,-1067.8,-2611.6,36.0,-499.0,-1500.0,12397.4,-53.6,-3752.6,-0.2,-708.8,-1413.4,9356.0,1057.8,-5154.4,68.8,-816.0,-1343.4,6568.6,1302.6,-3732.4,141.4,-896.8,-1330.2,4084.6,870.4,-2756.6,188.0,-950.2,-1253.8,2967.2,348.0,-1938.6,180.6,-978.8,-1215.0,1345.6,435.0,-1579.6,223.6,-1003.4,-1222.0,69.8,451.4,-745.2,291.4,-1015.4,-1210.6,-626.0,65.4,84.4,265.2,-1014.6,-1228.0,-1030.6,-119.8,343.8,289.6,-992.0,-1224.2,-1689.6,-174.2,722.6,283.6,-977.2,-1256.0,-2194.2,-618.6,1610.8,255.0,-963.0,-1279.4,-4223.4,-1116.2,2672.6,169.2,-877.8,-1317.4,-8275.0,-1402.2,3755.8,61.6,-664.4,-1345.4,-14417.8,-901.0,4176.4,49.0,-291.4,-1403.0,-15857.4,207.0,3761.6,-64.2,-9.0,-1484.4,-17248.2,1095.6,2261.8,34.0,433.4,-1503.4,-16253.2,1004.2,1207.0,122.4,731.8,-1616.0,-7725.0,630.2,440.4,92.6,772.0,-1536.4,-2367.8,349.4,502.0,104.8,729.6,-1526.2,-999.0,514.6,689.2,77.6,733.0,-1566.6,-650.4,321.4,182.2,81.6,767.0,-1537.0,-381.6,-80.0,206.6,63.0,757.4,-1548.2,258.8,-88.8,290.0,83.0,731.4,-1494.2,285.8,112.2,415.4,79.2,718.4,-1534.6,25.4,184.2,247.4,TILT_L
85.2,736.2,-1514.0,317.6,80.8,15.4,68.2,713.2,-1525.4,1107.8,175.6,-89.0,64.6,683.2,-1551.2,2402.4,319.6,-405.2,78.2,618.4,-1591.0,5767.2,222.0,-1031.8,65.6,462.2,-1616.8,11149.0,255.4,-1792.8,11.6,160.2,-1626.6,16753.4,557.0,-2106.4,26.2,-197.8,-1607.0,20773.0,335.0,-2775.0,110.0,-607.4,-1472.4,18058.6,829.4,-3155.8,13.4,-869.2,-1169.2,13284.8,56.4,-1080.4,75.2,-1151.8,-1057.2,1808.2,1430.6,-3257.4,298.6,-1028.2,-1145.8,-421.2,959.4,-2025.0,305.6,-1074.6,-1144.8,1310.2,-608.8,542.4,209.8,-1142.2,-1124.4,-740.2,-204.2,-118.6,278.2,-1090.4,-1147.4,-923.4,-360.8,160.8,240.6,-1116.8,-1142.2,-1283.2,-531.4,668.8,248.4,-1089.0,-1166.8,-2547.2,-659.2,1148.4,200.4,-1052.4,-1185.0,-4565.2,-925.0,1846.2,138.6,-951.4,-1203.0,-7850.0,-889.0,2361.0,93.8,-772.6,-1242.2,-10905.0,-852.0,2733.0,52.2,-546.6,-1333.2,-14096.2,-644.8,3181.8,-25.4,-217.6,-1412.0,-16602.4,-89.8,2380.0,13.0,229.2,-1537.8,-19631.4,-62.6,2412.4,20.0,642.4,-1556.4,-14131.6,-362.8,1763.6,-30.0,779.6,-1697.0,-4973.0,-455.0,428.8,-26.2,759.6,-1574.4,-1618.0,-193.8,238.8,5.6,763.4,-1559.4,-555.2,129.2,571.0,18.6,770.6,-1522.2,-872.2,-5.0,291.4,24.2,796.8,-1531.0,-254.4,15.8,448.2,35.8,786.6,-1516.8,-96.6,-23.8,313.2,14.0,765.4,-1508.6,221.0,-35.8,157.2,TILT_L
123.32000000000001,372.99999999999994,-1612.48,71.56,-123.4,267.4,125.44000000000001,360.32000000000005,-1615.8,138.07999999999998,-236.36000000000004,391.04,123.04,342.04,-1623.48,212.48000000000002,-337.32,581.4399999999999,126.88,327.64,-1627.04,253.72000000000008,-422.56000000000006,801.28,128.83999999999997,310.47999999999996,-1620.92,401.64,-490.2,1061.56,123.24000000000004,299.6,-1613.6399999999999,366.68,-465.88,1322.0,112.84,294.80000000000007,-1605.2800000000002,319.67999999999995,-364.28000000000003,1574.3600000000001,99.2,305.15999999999997,-1596.36,218.08,-265.79999999999995,1766.28,81.96,313.19999999999993,-1587.52,93.28000000000003,-153.52000000000004,1887.2,66.64000000000001,325.72,-1584.2000000000003,-38.64,-23.799999999999986,1922.8399999999997,53.75999999999999,338.4,-1582.7599999999998,-88.64000000000001,85.6,1869.5200000000004,43.67999999999999,353.91999999999996,-1586.84,-140.72,167.08,1701.2399999999998,40.480000000000004,360.36,-1591.16,-251.16,239.2,1451.36,40.96,369.36,-1598.6799999999998,-314.19999999999993,264.08000000000004,1165.16,43.519999999999996,377.9599999999999,-1604.6399999999999,-437.35999999999996,277.64,836.8399999999998,54.71999999999999,380.96000000000004,-1614.0399999999997,-394.08000000000004,270.52,518.4800000000001,67.0,373.72,-1614.6800000000003,-409.48,224.4,256.28000000000003,81.44,368.12,-1616.1200000000001,-323.15999999999997,170.76,72.96000000000001,94.84,358.08,-1613.6799999999998,-282.91999999999996,155.92,-39.64,111.4,352.32,-1612.6799999999998,-214.8,96.48,-88.12,113.56000000000002,344.48,-1609.4,-250.0,49.8,-72.12,114.2,343.03999999999996,-1610.52,-256.36,33.839999999999996,-23.639999999999997,111.64000000000001,342.56,-1607.48,-200.35999999999999,36.92,14.24,110.64000000000001,345.44,-1607.7199999999998,-200.51999999999998,35.68,30.439999999999998,108.75999999999999,343.4,-1606.8,-171.6,44.36,62.28000000000001,112.64000000000001,344.43999999999994,-1605.0400000000002,-197.92000000000002,46.96,75.04,115.28,341.36,-1601.64,-127.44000000000001,75.04,105.96,120.6,340.48,-1600.1599999999999,-223.4,116.55999999999999,131.71999999999997,122.2,338.72,-1599.8400000000001,-181.71999999999997,148.68,163.23999999999998,121.52000000000002,339.0,-1603.0400000000002,-174.32,182.6,160.72,IDLE
121.55999999999999,339.56,-1606.8800000000003,-170.56,189.44,147.0,121.64000000000001,341.88,-1610.56,-211.59999999999997,167.28000000000003,111.28,120.75999999999999,341.48,-1611.36,-166.44,141.0,88.52000000000001,121.63999999999999,340.64,-1610.2800000000002,-180.48,120.75999999999999,68.4,124.84,340.52000000000004,-1608.1999999999998,-194.12000000000003,108.23999999999998,79.12,127.35999999999999,340.28,-1604.0,-197.64,109.55999999999999,91.60000000000001,132.32,342.56,-1600.88,-210.16000000000003,111.44000000000001,94.35999999999999,134.4,344.71999999999997,-1599.84,-249.76000000000005,110.2,97.91999999999999,135.92000000000002,350.44000000000005,-1601.64,-265.2,96.75999999999999,110.28,133.71999999999997,352.84000000000003,-1602.56,-309.0400000000001,76.08,100.28,130.52,357.68,-1605.5599999999997,-337.64000000000004,51.4,79.60000000000001,126.72,361.08,-1606.4,-298.52,27.080000000000002,52.23999999999999,124.23999999999998,362.72,-1605.52,-287.44,16.520000000000003,19.32,121.67999999999998,362.2,-1602.56,-298.56,18.919999999999998,-9.559999999999999,120.48000000000002,363.88,-1600.6800000000003,-275.4,28.28,-23.32,120.8,366.2,-1601.0,-240.56000000000003,41.92,-33.52,119.68000000000002,367.15999999999997,-1602.7599999999998,-268.4,42.120000000000005,-56.52,117.03999999999999,370.36,-1606.16,-297.64,8.840000000000002,-105.67999999999999,116.6,375.47999999999996,-1610.2399999999998,-360.88,-73.96,-201.16000000000003,112.68000000000002,380.7200000000001,-1611.8400000000001,-458.32000000000005,-179.44,-325.71999999999997,99.24000000000001,383.32,-1607.1599999999999,-487.35999999999996,-265.15999999999997,-430.4,87.67999999999999,383.23999999999995,-1603.0,-364.8,-303.76,-470.68,77.44000000000001,383.0,-1598.56,-360.80000000000007,-282.0,-489.36,65.88,382.48,-1595.0400000000002,-188.47999999999996,-208.08,-450.96000000000004,58.08,377.24,-1593.0000000000002,-83.44000000000001,-98.04,-366.16,57.8,373.23999999999995,-1595.32,18.76,6.759999999999996,-269.12,58.760000000000005,370.36,-1597.36,-68.28,103.88000000000002,-199.68,58.2,367.28000000000003,-1600.2400000000002,62.64000000000001,162.88,-115.43999999999998,58.48,362.32000000000005,-1598.2,-63.879999999999995,209.27999999999997,-36.36,60.55999999999999,364.08000000000004,-1598.1200000000001,-104.52000000000001,241.40000000000003,29.0,IDLE
66.11999999999999,364.84000000000003,-1597.8400000000001,-83.84,267.68,64.28,69.72,366.12,-1598.6799999999998,-55.64,273.75999999999993,67.24000000000001,74.28,364.36,-1597.6799999999998,-93.36,272.15999999999997,60.839999999999996,79.84,363.4,-1599.6399999999999,-28.360000000000003,267.32,41.56,83.44000000000001,356.08000000000004,-1598.3600000000001,103.92,275.8,23.28,86.96,347.8,-1599.84,95.64000000000001,278.12000000000006,9.2,88.88000000000002,338.6,-1598.92,84.0,294.75999999999993,15.039999999999997,95.60000000000001,335.8,-1601.0,80.8,315.32000000000005,11.040000000000001,100.0,329.84000000000003,-1601.3200000000002,42.6,323.6,6.44,103.71999999999998,326.9599999999999,-1604.6,-26.72,287.8,4.4799999999999995,106.04,322.36,-1604.7600000000002,-162.56,231.48000000000002,19.88,110.64000000000001,323.6,-1606.3600000000001,-221.95999999999998,142.32,27.679999999999996,109.24000000000001,318.24,-1607.0,-283.88,42.92,54.0,108.96000000000001,319.28000000000003,-1608.2,-332.0,-46.52,79.52000000000001,106.92,318.76,-1607.9599999999998,-368.43999999999994,-105.28,104.71999999999998,102.64000000000001,321.71999999999997,-1607.4399999999998,-322.76000000000005,-136.2,110.08000000000001,95.32000000000001,321.32,-1606.44,-266.71999999999997,-127.72,119.6,92.32,325.91999999999996,-1604.5199999999998,-261.52,-96.76,123.68000000000002,87.52000000000001,327.72,-1603.3600000000001,-262.16,-54.0,140.24,84.08,333.00000000000006,-1603.64,-253.51999999999998,-4.279999999999999,138.04,83.55999999999999,338.71999999999997,-1605.48,-345.36,26.279999999999994,139.88000000000002,83.75999999999999,347.88,-1607.8400000000001,-503.3199999999999,6.160000000000002,139.48,80.28,357.32000000000005,-1609.9600000000003,-592.64,-32.2,125.03999999999999,75.8,367.4,-1610.1200000000001,-621.6,-68.52000000000001,72.24,74.4,374.8,-1609.0,-624.88,-100.16,32.36,72.6,380.76,-1606.8400000000001,-584.24,-129.04,-1.5999999999999999,70.08,383.8,-1603.6399999999999,-554.08,-127.28,-18.799999999999997,66.03999999999999,387.88,-1598.3999999999996,-537.24,-102.0,-25.559999999999995,60.36,391.36,-1595.56,-537.88,-72.08,-12.280000000000001,53.0,397.4,-1595.12,-645.36,-52.84000000000001,-1.8400000000000005,IDLE
47.4,405.64,-1591.56,-724.1600000000001,-51.48,28.119999999999997,42.48,419.64,-1589.5999999999997,-678.5200000000001,-27.679999999999996,18.16,41.44,429.48,-1589.4,-537.24,19.68,-29.920000000000005,44.36,434.71999999999997,-1590.3599999999997,-384.76,36.519999999999996,-83.52000000000001,45.04,433.6,-1588.48,-204.16000000000008,16.28,-125.0,41.08,431.43999999999994,-1588.6,-105.43999999999998,17.2,-213.76,36.96000000000001,424.35999999999996,-1587.6,68.72,0.4399999999999996,-285.72,33.96,417.68,-1589.7599999999998,85.48,-25.240000000000002,-306.88,31.72,415.68,-1591.56,104.92,-44.760000000000005,-319.08000000000004,28.24,413.9199999999999,-1593.72,147.47999999999996,-38.800000000000004,-358.36,27.560000000000002,407.71999999999997,-1596.6799999999998,274.35999999999996,-38.72,-374.43999999999994,27.360000000000003,401.6,-1601.36,252.44,-53.32000000000001,-386.24,23.2,395.20000000000005,-1600.3200000000002,249.72000000000003,-82.67999999999999,-406.28,17.48,387.08000000000004,-1597.04,206.03999999999996,-47.64000000000001,-426.8,15.279999999999998,380.28,-1595.8399999999997,212.52000000000004,61.36,-439.67999999999995,15.0,370.0,-1596.1200000000003,279.9599999999999,207.84,-453.84,18.4,353.04,-1595.3200000000002,302.56,356.84000000000003,-432.12000000000006,22.68,337.0,-1598.8799999999999,382.08,494.32,-374.00000000000006,30.119999999999997,318.96,-1603.36,446.64000000000004,551.1600000000001,-265.15999999999997,36.08,308.76,-1604.6,352.03999999999996,523.24,-128.24,39.2,305.00000000000006,-1603.3600000000001,223.28000000000003,461.4,19.72,41.839999999999996,304.91999999999996,-1603.6799999999998,117.76000000000002,396.68000000000006,147.92,46.12,306.08000000000004,-1603.0799999999997,-46.52,323.52,219.4,49.72,309.4800000000001,-1604.48,-134.68,275.71999999999997,229.92,55.67999999999999,307.16,-1608.56,-114.75999999999999,246.71999999999997,213.48000000000002,62.519999999999996,302.32,-1612.76,-126.11999999999998,216.60000000000005,195.28,68.60000000000001,300.4,-1613.3199999999997,-140.8,194.32,160.27999999999997,71.83999999999999,295.28,-1613.1999999999998,-107.99999999999997,192.24,150.56,73.44000000000001,291.44,-1611.7199999999998,-119.87999999999997,188.56,150.2,75.47999999999999,289.0,-1608.8,-157.92000000000002,179.56,161.08,IDLE
78.27999999999999,290.75999999999993,-1606.9199999999998,-192.76000000000005,169.48000000000002,162.76000000000005,81.4,291.71999999999997,-1608.3600000000001,-191.35999999999999,163.23999999999998,161.23999999999998,86.32000000000001,293.6,-1610.0,-254.63999999999996,141.8,154.56,88.19999999999999,297.43999999999994,-1611.9600000000003,-276.7199999999999,124.28000000000002,145.4,88.2,301.32,-1614.48,-273.03999999999996,99.84,124.08000000000001,88.32000000000001,301.52,-1615.6400000000003,-274.88,84.52000000000001,110.2,85.96000000000001,302.08000000000004,-1615.4,-301.43999999999994,58.55999999999999,115.72,82.52,304.75999999999993,-1613.56,-288.28000000000003,48.92,119.76000000000002,84.63999999999999,307.6,-1611.2,-288.04,36.760000000000005,114.55999999999999,86.32,312.2,-1610.44,-303.2,41.36,117.40000000000002,85.72,317.4,-1609.9999999999998,-326.08000000000004,41.31999999999999,103.03999999999999,85.56,322.67999999999995,-1608.9599999999998,-338.55999999999995,56.67999999999999,74.28,85.24,324.23999999999995,-1609.56,-352.2,44.040000000000006,35.92,83.32,326.08,-1609.4,-366.32000000000005,37.08,15.039999999999997,79.32000000000001,323.48,-1605.3199999999997,-381.84,39.8,0.72,75.11999999999999,323.6,-1603.56,-409.03999999999996,54.039999999999985,-1.5200000000000002,74.72,324.08000000000004,-1605.1599999999999,-378.88,37.52,-4.92,73.83999999999999,326.55999999999995,-1604.44,-395.8,40.64000000000001,-10.32,72.08,331.8,-1605.56,-356.48,33.92,-5.0,73.68000000000002,338.52,-1605.0399999999997,-401.00000000000006,21.52,-12.2,78.16000000000001,345.76,-1604.0800000000004,-362.0,2.3600000000000003,-10.28,76.72,352.64,-1602.2400000000002,-366.32000000000005,12.56,-0.08000000000000007,76.36000000000001,358.6,-1601.0400000000002,-317.92,23.04,16.56,75.6,361.59999999999997,-1598.5600000000002,-310.64,50.239999999999995,26.360000000000003,74.07999999999998,365.04,-1599.9600000000003,-204.72000000000003,71.4,44.519999999999996,71.12,365.40000000000003,-1600.2800000000002,-160.64,97.47999999999999,50.64000000000001,70.32000000000001,363.56,-1598.44,-141.56,112.8,64.68,70.16,363.67999999999995,-1597.32,-169.88000000000002,133.51999999999998,90.48,71.2,362.68,-1597.76,-184.71999999999997,138.4,114.75999999999999,73.32000000000001,360.6,-1600.0399999999997,-230.8,146.72,126.20000000000002,IDLE
